##TITLE=нпво 3.1 1 без апод
##$NOTE=17.03.2022 16:28:1 ^0 x10 v:1 [Без приставки]
##$ITAB=-1,-1
##FIRSTX=5000.29
##DELTAX=-0.482281
##NPOINTS=9333
##XUNITS=1/CM
##YUNITS=ABSORBANCE
5000.29	0.148574
4999.81	0.231788
4999.32	0.240667
4998.84	0.176849
4998.36	0.161451
4997.88	0.217131
4997.39	0.260818
4996.91	0.257562
4996.43	0.235563
4995.95	0.210814
4995.47	0.176352
4994.98	0.148931
4994.5	0.145517
4994.02	0.149749
4993.54	0.133796
4993.05	0.1128
4992.57	0.116603
4992.09	0.141182
4991.61	0.178359
4991.13	0.234543
4990.64	0.297643
4990.16	0.328323
4989.68	0.309339
4989.2	0.260609
4988.71	0.194203
4988.23	0.110506
4987.75	0.0548515
4987.27	0.0929227
4986.78	0.189109
4986.3	0.243408
4985.82	0.219296
4985.34	0.186123
4984.86	0.217474
4984.37	0.262951
4983.89	0.261211
4983.41	0.22673
4982.93	0.189351
4982.44	0.157191
4981.96	0.139691
4981.48	0.156055
4981	0.197715
4980.51	0.213782
4980.03	0.171386
4979.55	0.126588
4979.07	0.127527
4978.59	0.158335
4978.1	0.188308
4977.62	0.20383
4977.14	0.194166
4976.66	0.152148
4976.17	0.115423
4975.69	0.135171
4975.21	0.185769
4974.73	0.193839
4974.25	0.147388
4973.76	0.126587
4973.28	0.171035
4972.8	0.213282
4972.32	0.199467
4971.83	0.180115
4971.35	0.201177
4970.87	0.211598
4970.39	0.169678
4969.9	0.142682
4969.42	0.190543
4968.94	0.255267
4968.46	0.232778
4967.98	0.133603
4967.49	0.0858942
4967.01	0.13524
4966.53	0.192735
4966.05	0.188361
4965.56	0.15042
4965.08	0.136522
4964.6	0.158087
4964.12	0.177239
4963.64	0.161872
4963.15	0.12185
4962.67	0.100695
4962.19	0.12801
4961.71	0.181354
4961.22	0.214097
4960.74	0.204345
4960.26	0.186693
4959.78	0.205858
4959.29	0.253981
4958.81	0.285927
4958.33	0.282291
4957.85	0.272173
4957.37	0.274046
4956.88	0.265261
4956.4	0.230637
4955.92	0.201044
4955.44	0.209485
4954.95	0.242128
4954.47	0.241295
4953.99	0.190699
4953.51	0.130656
4953.02	0.0989768
4952.54	0.101782
4952.06	0.115943
4951.58	0.138063
4951.1	0.179086
4950.61	0.220341
4950.13	0.218235
4949.65	0.189346
4949.17	0.181143
4948.68	0.180411
4948.2	0.143673
4947.72	0.0936235
4947.24	0.11683
4946.76	0.218644
4946.27	0.288272
4945.79	0.256171
4945.31	0.186484
4944.83	0.156384
4944.34	0.162917
4943.86	0.173005
4943.38	0.189395
4942.9	0.205002
4942.41	0.168225
4941.93	0.0796353
4941.45	0.0342409
4940.97	0.111487
4940.49	0.23043
4940	0.243359
4939.52	0.166894
4939.04	0.137508
4938.56	0.193338
4938.07	0.242396
4937.59	0.228061
4937.11	0.182854
4936.63	0.163665
4936.15	0.169571
4935.66	0.172656
4935.18	0.176087
4934.7	0.190925
4934.22	0.207461
4933.73	0.213183
4933.25	0.209261
4932.77	0.200803
4932.29	0.200562
4931.8	0.216558
4931.32	0.222449
4930.84	0.167811
4930.36	0.101066
4929.88	0.121353
4929.39	0.227876
4928.91	0.328629
4928.43	0.283115
4927.95	0.163581
4927.46	0.117614
4926.98	0.152456
4926.5	0.182149
4926.02	0.170444
4925.53	0.182946
4925.05	0.226511
4924.57	0.225152
4924.09	0.15435
4923.61	0.123135
4923.12	0.187297
4922.64	0.240889
4922.16	0.185444
4921.68	0.0841552
4921.19	0.0553926
4920.71	0.139256
4920.23	0.239918
4919.75	0.270092
4919.27	0.22421
4918.78	0.14953
4918.3	0.120227
4917.82	0.160496
4917.34	0.2261
4916.85	0.229646
4916.37	0.156636
4915.89	0.111805
4915.41	0.137253
4914.92	0.180649
4914.44	0.178945
4913.96	0.165793
4913.48	0.207134
4913	0.262019
4912.51	0.235011
4912.03	0.138856
4911.55	0.0832281
4911.07	0.140061
4910.58	0.226148
4910.1	0.236649
4909.62	0.188192
4909.14	0.152303
4908.66	0.153334
4908.17	0.148674
4907.69	0.11444
4907.21	0.088766
4906.73	0.119098
4906.24	0.181507
4905.76	0.227488
4905.28	0.24059
4904.8	0.239117
4904.31	0.239422
4903.83	0.229284
4903.35	0.203128
4902.87	0.193391
4902.39	0.215408
4901.9	0.227295
4901.42	0.174819
4900.94	0.0895246
4900.46	0.0704305
4899.97	0.133594
4899.49	0.213196
4899.01	0.226005
4898.53	0.178554
4898.04	0.147328
4897.56	0.160687
4897.08	0.19679
4896.6	0.224006
4896.12	0.226589
4895.63	0.196639
4895.15	0.14875
4894.67	0.134684
4894.19	0.18462
4893.7	0.234501
4893.22	0.206304
4892.74	0.155243
4892.26	0.182475
4891.78	0.289594
4891.29	0.336088
4890.81	0.255508
4890.33	0.165347
4889.85	0.155924
4889.36	0.192733
4888.88	0.17798
4888.4	0.14057
4887.92	0.165872
4887.43	0.238829
4886.95	0.253712
4886.47	0.197165
4885.99	0.167887
4885.51	0.2097
4885.02	0.247407
4884.54	0.205712
4884.06	0.147849
4883.58	0.141396
4883.09	0.168366
4882.61	0.185431
4882.13	0.190387
4881.65	0.201852
4881.17	0.201542
4880.68	0.169132
4880.2	0.136452
4879.72	0.152947
4879.24	0.194769
4878.75	0.212324
4878.27	0.200615
4877.79	0.182276
4877.31	0.166295
4876.82	0.1505
4876.34	0.150307
4875.86	0.179571
4875.38	0.213345
4874.9	0.213573
4874.41	0.19588
4873.93	0.202294
4873.45	0.235688
4872.97	0.256456
4872.48	0.236552
4872	0.215819
4871.52	0.230592
4871.04	0.259343
4870.55	0.256743
4870.07	0.211451
4869.59	0.171132
4869.11	0.174
4868.63	0.211183
4868.14	0.237739
4867.66	0.223695
4867.18	0.191961
4866.7	0.172481
4866.21	0.169039
4865.73	0.170251
4865.25	0.175008
4864.77	0.186251
4864.29	0.19234
4863.8	0.184442
4863.32	0.183782
4862.84	0.208448
4862.36	0.232712
4861.87	0.224416
4861.39	0.194244
4860.91	0.183695
4860.43	0.198289
4859.94	0.205102
4859.46	0.193629
4858.98	0.185164
4858.5	0.176947
4858.02	0.1446
4857.53	0.101623
4857.05	0.104024
4856.57	0.158774
4856.09	0.18592
4855.6	0.155414
4855.12	0.119671
4854.64	0.128113
4854.16	0.168658
4853.68	0.197528
4853.19	0.201485
4852.71	0.19157
4852.23	0.163068
4851.75	0.117461
4851.26	0.0960422
4850.78	0.138073
4850.3	0.203639
4849.82	0.230799
4849.33	0.20747
4848.85	0.164841
4848.37	0.137898
4847.89	0.144527
4847.41	0.185507
4846.92	0.225507
4846.44	0.220286
4845.96	0.183401
4845.48	0.167542
4844.99	0.197156
4844.51	0.231168
4844.03	0.222886
4843.55	0.19385
4843.06	0.18737
4842.58	0.199054
4842.1	0.202871
4841.62	0.201394
4841.14	0.20941
4840.65	0.211716
4840.17	0.186211
4839.69	0.152128
4839.21	0.150992
4838.72	0.182848
4838.24	0.209994
4837.76	0.211436
4837.28	0.201017
4836.8	0.196804
4836.31	0.196456
4835.83	0.185226
4835.35	0.161372
4834.87	0.140288
4834.38	0.135642
4833.9	0.156952
4833.42	0.188847
4832.94	0.196992
4832.45	0.197549
4831.97	0.223609
4831.49	0.271909
4831.01	0.282047
4830.53	0.234818
4830.04	0.193631
4829.56	0.192682
4829.08	0.210152
4828.6	0.20788
4828.11	0.198022
4827.63	0.219187
4827.15	0.274982
4826.67	0.309738
4826.19	0.276009
4825.7	0.223499
4825.22	0.20485
4824.74	0.219098
4824.26	0.226128
4823.77	0.19814
4823.29	0.17416
4822.81	0.193089
4822.33	0.2354
4821.84	0.244825
4821.36	0.210409
4820.88	0.186005
4820.4	0.202155
4819.92	0.220043
4819.43	0.206914
4818.95	0.196678
4818.47	0.219647
4817.99	0.247846
4817.5	0.232076
4817.02	0.194932
4816.54	0.18277
4816.06	0.183225
4815.57	0.160771
4815.09	0.13814
4814.61	0.160273
4814.13	0.195986
4813.65	0.184034
4813.16	0.139684
4812.68	0.132857
4812.2	0.170422
4811.72	0.176394
4811.23	0.125467
4810.75	0.0924488
4810.27	0.132333
4809.79	0.201065
4809.31	0.221695
4808.82	0.188134
4808.34	0.155382
4807.86	0.154781
4807.38	0.177393
4806.89	0.201509
4806.41	0.204862
4805.93	0.183732
4805.45	0.160348
4804.96	0.163258
4804.48	0.199054
4804	0.232636
4803.52	0.243194
4803.04	0.244619
4802.55	0.238363
4802.07	0.212508
4801.59	0.182288
4801.11	0.176247
4800.62	0.184769
4800.14	0.179181
4799.66	0.165584
4799.18	0.180826
4798.69	0.219083
4798.21	0.231304
4797.73	0.209535
4797.25	0.191257
4796.77	0.188746
4796.28	0.17243
4795.8	0.139361
4795.32	0.136901
4794.84	0.185402
4794.35	0.241734
4793.87	0.253654
4793.39	0.23233
4792.91	0.218365
4792.43	0.210421
4791.94	0.191895
4791.46	0.180693
4790.98	0.205374
4790.5	0.247727
4790.01	0.262558
4789.53	0.237757
4789.05	0.197773
4788.57	0.17657
4788.08	0.183557
4787.6	0.199554
4787.12	0.205371
4786.64	0.194122
4786.16	0.176843
4785.67	0.17107
4785.19	0.178044
4784.71	0.186654
4784.23	0.19386
4783.74	0.201525
4783.26	0.202199
4782.78	0.193444
4782.3	0.20084
4781.82	0.244724
4781.33	0.295535
4780.85	0.297924
4780.37	0.23928
4779.89	0.195977
4779.4	0.204156
4778.92	0.221262
4778.44	0.207136
4777.96	0.171624
4777.47	0.155074
4776.99	0.159117
4776.51	0.169734
4776.03	0.191329
4775.55	0.215778
4775.06	0.2056
4774.58	0.150259
4774.1	0.111212
4773.62	0.138991
4773.13	0.193796
4772.65	0.2102
4772.17	0.189666
4771.69	0.196998
4771.2	0.245174
4770.72	0.269974
4770.24	0.216681
4769.76	0.13471
4769.28	0.100911
4768.79	0.119553
4768.31	0.153232
4767.83	0.168009
4767.35	0.157545
4766.86	0.137348
4766.38	0.130934
4765.9	0.153286
4765.42	0.18534
4764.94	0.195762
4764.45	0.187332
4763.97	0.194536
4763.49	0.227816
4763.01	0.2462
4762.52	0.21785
4762.04	0.179666
4761.56	0.175718
4761.08	0.190157
4760.59	0.176016
4760.11	0.135368
4759.63	0.115577
4759.15	0.127061
4758.67	0.145714
4758.18	0.161472
4757.7	0.194275
4757.22	0.241926
4756.74	0.260925
4756.25	0.20614
4755.77	0.130124
4755.29	0.111869
4754.81	0.141578
4754.33	0.179732
4753.84	0.195535
4753.36	0.183172
4752.88	0.15895
4752.4	0.145476
4751.91	0.164928
4751.43	0.206045
4750.95	0.221502
4750.47	0.200153
4749.98	0.187877
4749.5	0.213969
4749.02	0.240645
4748.54	0.218342
4748.06	0.169542
4747.57	0.168599
4747.09	0.217624
4746.61	0.252236
4746.13	0.246469
4745.64	0.225145
4745.16	0.209217
4744.68	0.188094
4744.2	0.162319
4743.71	0.166537
4743.23	0.218965
4742.75	0.266092
4742.27	0.25425
4741.79	0.204713
4741.3	0.1729
4740.82	0.186777
4740.34	0.225068
4739.86	0.257981
4739.37	0.261266
4738.89	0.223373
4738.41	0.177473
4737.93	0.16471
4737.45	0.193694
4736.96	0.228882
4736.48	0.22084
4736	0.192159
4735.52	0.191971
4735.03	0.219203
4734.55	0.224982
4734.07	0.187964
4733.59	0.161056
4733.1	0.190335
4732.62	0.235677
4732.14	0.225275
4731.66	0.165796
4731.18	0.137956
4730.69	0.183311
4730.21	0.238805
4729.73	0.235634
4729.25	0.193744
4728.76	0.17883
4728.28	0.198477
4727.8	0.209106
4727.32	0.195608
4726.84	0.17961
4726.35	0.165109
4725.87	0.134161
4725.39	0.10667
4724.91	0.125534
4724.42	0.182175
4723.94	0.2154
4723.46	0.199204
4722.98	0.187713
4722.49	0.222108
4722.01	0.254459
4721.53	0.228532
4721.05	0.174473
4720.57	0.159562
4720.08	0.188439
4719.6	0.202384
4719.12	0.182973
4718.64	0.168406
4718.15	0.187783
4717.67	0.222432
4717.19	0.237854
4716.71	0.23592
4716.22	0.235327
4715.74	0.24468
4715.26	0.253029
4714.78	0.238531
4714.3	0.191761
4713.81	0.135937
4713.33	0.123703
4712.85	0.174276
4712.37	0.246151
4711.88	0.278947
4711.4	0.247387
4710.92	0.202964
4710.44	0.193373
4709.96	0.202965
4709.47	0.200755
4708.99	0.183699
4708.51	0.176115
4708.03	0.188797
4707.54	0.199586
4707.06	0.186033
4706.58	0.162194
4706.1	0.16824
4705.61	0.20974
4705.13	0.242252
4704.65	0.236674
4704.17	0.213112
4703.69	0.201155
4703.2	0.203293
4702.72	0.20374
4702.24	0.200156
4701.76	0.199071
4701.27	0.194293
4700.79	0.183126
4700.31	0.183644
4699.83	0.202673
4699.35	0.210423
4698.86	0.185539
4698.38	0.159152
4697.9	0.164685
4697.42	0.186256
4696.93	0.193026
4696.45	0.195046
4695.97	0.214428
4695.49	0.228538
4695	0.200824
4694.52	0.158282
4694.04	0.164033
4693.56	0.204429
4693.08	0.217339
4692.59	0.1912
4692.11	0.189316
4691.63	0.225463
4691.15	0.246814
4690.66	0.216172
4690.18	0.180395
4689.7	0.17923
4689.22	0.186993
4688.73	0.177422
4688.25	0.167572
4687.77	0.175825
4687.29	0.188493
4686.81	0.200382
4686.32	0.223086
4685.84	0.242352
4685.36	0.224468
4684.88	0.176814
4684.39	0.152183
4683.91	0.180479
4683.43	0.229871
4682.95	0.256329
4682.47	0.25622
4681.98	0.24205
4681.5	0.211524
4681.02	0.174443
4680.54	0.158353
4680.05	0.167494
4679.57	0.179807
4679.09	0.189495
4678.61	0.20951
4678.12	0.230082
4677.64	0.233744
4677.16	0.229924
4676.68	0.240862
4676.2	0.241237
4675.71	0.197806
4675.23	0.150182
4674.75	0.169789
4674.27	0.233981
4673.78	0.23694
4673.3	0.149306
4672.82	0.0721116
4672.34	0.100525
4671.86	0.182231
4671.37	0.220967
4670.89	0.219921
4670.41	0.225623
4669.93	0.235684
4669.44	0.217424
4668.96	0.186471
4668.48	0.177432
4668	0.183875
4667.51	0.185043
4667.03	0.180394
4666.55	0.174329
4666.07	0.158839
4665.59	0.142422
4665.1	0.155236
4664.62	0.189572
4664.14	0.203741
4663.66	0.188703
4663.17	0.176541
4662.69	0.177687
4662.21	0.160702
4661.73	0.126766
4661.24	0.125015
4660.76	0.165454
4660.28	0.185077
4659.8	0.161222
4659.32	0.150625
4658.83	0.182663
4658.35	0.202348
4657.87	0.166004
4657.39	0.132944
4656.9	0.166609
4656.42	0.218197
4655.94	0.205478
4655.46	0.150668
4654.98	0.143462
4654.49	0.19315
4654.01	0.229857
4653.53	0.219987
4653.05	0.201674
4652.56	0.200522
4652.08	0.198825
4651.6	0.188403
4651.12	0.186379
4650.63	0.198577
4650.15	0.209706
4649.67	0.218586
4649.19	0.237758
4648.71	0.252512
4648.22	0.229924
4647.74	0.183939
4647.26	0.165787
4646.78	0.185953
4646.29	0.209497
4645.81	0.205549
4645.33	0.189795
4644.85	0.188654
4644.37	0.19297
4643.88	0.180121
4643.4	0.157335
4642.92	0.153484
4642.44	0.173611
4641.95	0.198825
4641.47	0.216776
4640.99	0.230664
4640.51	0.236414
4640.02	0.218185
4639.54	0.183884
4639.06	0.174347
4638.58	0.216144
4638.1	0.261112
4637.61	0.242664
4637.13	0.185112
4636.65	0.169175
4636.17	0.220704
4635.68	0.261782
4635.2	0.22591
4634.72	0.168434
4634.24	0.16396
4633.75	0.192037
4633.27	0.189269
4632.79	0.164202
4632.31	0.177136
4631.83	0.216553
4631.34	0.212148
4630.86	0.164534
4630.38	0.144745
4629.9	0.193287
4629.41	0.254406
4628.93	0.251008
4628.45	0.212138
4627.97	0.191848
4627.49	0.189591
4627	0.179555
4626.52	0.163517
4626.04	0.162121
4625.56	0.181423
4625.07	0.211761
4624.59	0.24021
4624.11	0.254384
4623.63	0.240444
4623.14	0.202632
4622.66	0.170436
4622.18	0.160799
4621.7	0.167528
4621.22	0.179011
4620.73	0.188545
4620.25	0.19703
4619.77	0.212774
4619.29	0.241595
4618.8	0.261868
4618.32	0.242273
4617.84	0.184291
4617.36	0.13371
4616.88	0.144157
4616.39	0.193108
4615.91	0.218173
4615.43	0.20286
4614.95	0.182266
4614.46	0.176812
4613.98	0.172007
4613.5	0.169483
4613.02	0.190988
4612.53	0.229102
4612.05	0.243328
4611.57	0.225407
4611.09	0.210254
4610.61	0.213192
4610.12	0.206183
4609.64	0.172751
4609.16	0.142435
4608.68	0.141648
4608.19	0.154176
4607.71	0.15178
4607.23	0.143214
4606.75	0.152897
4606.26	0.172679
4605.78	0.170504
4605.3	0.144658
4604.82	0.131953
4604.34	0.152841
4603.85	0.192836
4603.37	0.210528
4602.89	0.192308
4602.41	0.166294
4601.92	0.15243
4601.44	0.152299
4600.96	0.16495
4600.48	0.197708
4600	0.248583
4599.51	0.280713
4599.03	0.256026
4598.55	0.209455
4598.07	0.195445
4597.58	0.22009
4597.1	0.239148
4596.62	0.218118
4596.14	0.179205
4595.65	0.155388
4595.17	0.158122
4594.69	0.18171
4594.21	0.208531
4593.73	0.214127
4593.24	0.185909
4592.76	0.145695
4592.28	0.128097
4591.8	0.130947
4591.31	0.135718
4590.83	0.149015
4590.35	0.181802
4589.87	0.204011
4589.39	0.186598
4588.9	0.166462
4588.42	0.198201
4587.94	0.258864
4587.46	0.274313
4586.97	0.22564
4586.49	0.166352
4586.01	0.151651
4585.53	0.164223
4585.04	0.174027
4584.56	0.186065
4584.08	0.198531
4583.6	0.193849
4583.12	0.185574
4582.63	0.208641
4582.15	0.248107
4581.67	0.24703
4581.19	0.210711
4580.7	0.190917
4580.22	0.202249
4579.74	0.199813
4579.26	0.171996
4578.77	0.168216
4578.29	0.196887
4577.81	0.190723
4577.33	0.137792
4576.85	0.105712
4576.36	0.148139
4575.88	0.213788
4575.4	0.221783
4574.92	0.191588
4574.43	0.168656
4573.95	0.156667
4573.47	0.156863
4572.99	0.193331
4572.51	0.248332
4572.02	0.2363
4571.54	0.167052
4571.06	0.145598
4570.58	0.195722
4570.09	0.221462
4569.61	0.145459
4569.13	0.0723224
4568.65	0.122122
4568.16	0.224512
4567.68	0.222514
4567.2	0.124239
4566.72	0.0844524
4566.24	0.153236
4565.75	0.228892
4565.27	0.229153
4564.79	0.194427
4564.31	0.193622
4563.82	0.209506
4563.34	0.19982
4562.86	0.168192
4562.38	0.146525
4561.9	0.142782
4561.41	0.145047
4560.93	0.153107
4560.45	0.174146
4559.97	0.204793
4559.48	0.231191
4559	0.231261
4558.52	0.198428
4558.04	0.171099
4557.55	0.189206
4557.07	0.23789
4556.59	0.251581
4556.11	0.214148
4555.63	0.184093
4555.14	0.18679
4554.66	0.18014
4554.18	0.139979
4553.7	0.12059
4553.21	0.16096
4552.73	0.210892
4552.25	0.208786
4551.77	0.177813
4551.28	0.173349
4550.8	0.193508
4550.32	0.191109
4549.84	0.163314
4549.36	0.149848
4548.87	0.164695
4548.39	0.189882
4547.91	0.214899
4547.43	0.228794
4546.94	0.203959
4546.46	0.144465
4545.98	0.108812
4545.5	0.140205
4545.02	0.187148
4544.53	0.179019
4544.05	0.142794
4543.57	0.147219
4543.09	0.195418
4542.6	0.213705
4542.12	0.181849
4541.64	0.152025
4541.16	0.151252
4540.67	0.158129
4540.19	0.160151
4539.71	0.175249
4539.23	0.200737
4538.75	0.206211
4538.26	0.189046
4537.78	0.183838
4537.3	0.203357
4536.82	0.221992
4536.33	0.22696
4535.85	0.223809
4535.37	0.203675
4534.89	0.157343
4534.41	0.112782
4533.92	0.11754
4533.44	0.169693
4532.96	0.199444
4532.48	0.182132
4531.99	0.164192
4531.51	0.19409
4531.03	0.238952
4530.55	0.23197
4530.06	0.190894
4529.58	0.173256
4529.1	0.202574
4528.62	0.243268
4528.14	0.247765
4527.65	0.21671
4527.17	0.186542
4526.69	0.182288
4526.21	0.202838
4525.72	0.228056
4525.24	0.237432
4524.76	0.225476
4524.28	0.19706
4523.79	0.166941
4523.31	0.155407
4522.83	0.16437
4522.35	0.174044
4521.87	0.172909
4521.38	0.174522
4520.9	0.195075
4520.42	0.224374
4519.94	0.234164
4519.45	0.224472
4518.97	0.219745
4518.49	0.224072
4518.01	0.220896
4517.53	0.210716
4517.04	0.208767
4516.56	0.207218
4516.08	0.178117
4515.6	0.139906
4515.11	0.141671
4514.63	0.190561
4514.15	0.229612
4513.67	0.210044
4513.18	0.176591
4512.7	0.19031
4512.22	0.234296
4511.74	0.235193
4511.26	0.190729
4510.77	0.157317
4510.29	0.170292
4509.81	0.199166
4509.33	0.206116
4508.84	0.203955
4508.36	0.20699
4507.88	0.201297
4507.4	0.181642
4506.92	0.173246
4506.43	0.190179
4505.95	0.204566
4505.47	0.192105
4504.99	0.178405
4504.5	0.195997
4504.02	0.227195
4503.54	0.232455
4503.06	0.214378
4502.57	0.204517
4502.09	0.208201
4501.61	0.200121
4501.13	0.181746
4500.65	0.181092
4500.16	0.204341
4499.68	0.212479
4499.2	0.194696
4498.72	0.191214
4498.23	0.217585
4497.75	0.23164
4497.27	0.20328
4496.79	0.173014
4496.3	0.187451
4495.82	0.223951
4495.34	0.224635
4494.86	0.193242
4494.38	0.177392
4493.89	0.185061
4493.41	0.187195
4492.93	0.176387
4492.45	0.173975
4491.96	0.177166
4491.48	0.169969
4491	0.16521
4490.52	0.186906
4490.04	0.208121
4489.55	0.191181
4489.07	0.159695
4488.59	0.166006
4488.11	0.203217
4487.62	0.212428
4487.14	0.192297
4486.66	0.193893
4486.18	0.214404
4485.69	0.196951
4485.21	0.135737
4484.73	0.120626
4484.25	0.170888
4483.77	0.202869
4483.28	0.176668
4482.8	0.151589
4482.32	0.177269
4481.84	0.206167
4481.35	0.186277
4480.87	0.160535
4480.39	0.188698
4479.91	0.225397
4479.43	0.202961
4478.94	0.157819
4478.46	0.163655
4477.98	0.195256
4477.5	0.180537
4477.01	0.141402
4476.53	0.158623
4476.05	0.222978
4475.57	0.242425
4475.08	0.196676
4474.6	0.169722
4474.12	0.19831
4473.64	0.223325
4473.16	0.198615
4472.67	0.161598
4472.19	0.162982
4471.71	0.193049
4471.23	0.217725
4470.74	0.236186
4470.26	0.248729
4469.78	0.232523
4469.3	0.193427
4468.81	0.174315
4468.33	0.186432
4467.85	0.199607
4467.37	0.194973
4466.89	0.19681
4466.4	0.216285
4465.92	0.222236
4465.44	0.193635
4464.96	0.165414
4464.47	0.165339
4463.99	0.174323
4463.51	0.172407
4463.03	0.174287
4462.55	0.198177
4462.06	0.225267
4461.58	0.226161
4461.1	0.204857
4460.62	0.187799
4460.13	0.188139
4459.65	0.204786
4459.17	0.23112
4458.69	0.250434
4458.2	0.241514
4457.72	0.204516
4457.24	0.174096
4456.76	0.179971
4456.28	0.209035
4455.79	0.226719
4455.31	0.211044
4454.83	0.168597
4454.35	0.131273
4453.86	0.134406
4453.38	0.180172
4452.9	0.218577
4452.42	0.199018
4451.94	0.147325
4451.45	0.128119
4450.97	0.150103
4450.49	0.168966
4450.01	0.170021
4449.52	0.186458
4449.04	0.21643
4448.56	0.205001
4448.08	0.141382
4447.59	0.104831
4447.11	0.149164
4446.63	0.221159
4446.15	0.242567
4445.67	0.219515
4445.18	0.210191
4444.7	0.215149
4444.22	0.1938
4443.74	0.162013
4443.25	0.177511
4442.77	0.22492
4442.29	0.228122
4441.81	0.170681
4441.32	0.13451
4440.84	0.174001
4440.36	0.228712
4439.88	0.216165
4439.4	0.163023
4438.91	0.151599
4438.43	0.201494
4437.95	0.25702
4437.47	0.261609
4436.98	0.230498
4436.5	0.204242
4436.02	0.196306
4435.54	0.197921
4435.06	0.194426
4434.57	0.177854
4434.09	0.160431
4433.61	0.174988
4433.13	0.223998
4432.64	0.261438
4432.16	0.249651
4431.68	0.206041
4431.2	0.178892
4430.71	0.177025
4430.23	0.173992
4429.75	0.159102
4429.27	0.15819
4428.79	0.18435
4428.3	0.216119
4427.82	0.227305
4427.34	0.206417
4426.86	0.171864
4426.37	0.155127
4425.89	0.169619
4425.41	0.20364
4424.93	0.223461
4424.45	0.205933
4423.96	0.180734
4423.48	0.186764
4423	0.209886
4422.52	0.204978
4422.03	0.166978
4421.55	0.146958
4421.07	0.175091
4420.59	0.220372
4420.1	0.229851
4419.62	0.194412
4419.14	0.161017
4418.66	0.166929
4418.18	0.201335
4417.69	0.224837
4417.21	0.202838
4416.73	0.144368
4416.25	0.115139
4415.76	0.154866
4415.28	0.217999
4414.8	0.237044
4414.32	0.205649
4413.83	0.180457
4413.35	0.183385
4412.87	0.17871
4412.39	0.148975
4411.91	0.136964
4411.42	0.16773
4410.94	0.197586
4410.46	0.188327
4409.98	0.169298
4409.49	0.184101
4409.01	0.204837
4408.53	0.174735
4408.05	0.120699
4407.57	0.121828
4407.08	0.191097
4406.6	0.242967
4406.12	0.209342
4405.64	0.133996
4405.15	0.0973333
4404.67	0.121831
4404.19	0.166006
4403.71	0.201167
4403.22	0.229243
4402.74	0.241082
4402.26	0.221543
4401.78	0.187125
4401.3	0.172586
4400.81	0.187953
4400.33	0.197
4399.85	0.170354
4399.37	0.133684
4398.88	0.138132
4398.4	0.18939
4397.92	0.228875
4397.44	0.208282
4396.96	0.154573
4396.47	0.139711
4395.99	0.179357
4395.51	0.226085
4395.03	0.229232
4394.54	0.19042
4394.06	0.161424
4393.58	0.165569
4393.1	0.182376
4392.61	0.188265
4392.13	0.184027
4391.65	0.182712
4391.17	0.187573
4390.69	0.193538
4390.2	0.198492
4389.72	0.202511
4389.24	0.202733
4388.76	0.201059
4388.27	0.209516
4387.79	0.234405
4387.31	0.256578
4386.83	0.23998
4386.34	0.185469
4385.86	0.134575
4385.38	0.122424
4384.9	0.149563
4384.42	0.177941
4383.93	0.183902
4383.45	0.185808
4382.97	0.205027
4382.49	0.23547
4382	0.253929
4381.52	0.251898
4381.04	0.2361
4380.56	0.21124
4380.08	0.184876
4379.59	0.173684
4379.11	0.186849
4378.63	0.210283
4378.15	0.220578
4377.66	0.215099
4377.18	0.20732
4376.7	0.198977
4376.22	0.184735
4375.73	0.172444
4375.25	0.173974
4374.77	0.17781
4374.29	0.167256
4373.81	0.153944
4373.32	0.166038
4372.84	0.20127
4372.36	0.217192
4371.88	0.192683
4371.39	0.158412
4370.91	0.154778
4370.43	0.180371
4369.95	0.194717
4369.46	0.181068
4368.98	0.163019
4368.5	0.165601
4368.02	0.185081
4367.54	0.196796
4367.05	0.195027
4366.57	0.197943
4366.09	0.215357
4365.61	0.231434
4365.12	0.225908
4364.64	0.206071
4364.16	0.195841
4363.68	0.196186
4363.2	0.187955
4362.71	0.172116
4362.23	0.173359
4361.75	0.200422
4361.27	0.225151
4360.78	0.218065
4360.3	0.192986
4359.82	0.179756
4359.34	0.177621
4358.85	0.172493
4358.37	0.171303
4357.89	0.189342
4357.41	0.213769
4356.93	0.214553
4356.44	0.189085
4355.96	0.16272
4355.48	0.150823
4355	0.148851
4354.51	0.153837
4354.03	0.169014
4353.55	0.184323
4353.07	0.17915
4352.59	0.158326
4352.1	0.149326
4351.62	0.166983
4351.14	0.200696
4350.66	0.222958
4350.17	0.225263
4349.69	0.216738
4349.21	0.197288
4348.73	0.17249
4348.24	0.168931
4347.76	0.196207
4347.28	0.22283
4346.8	0.205895
4346.32	0.151136
4345.83	0.125844
4345.35	0.168615
4344.87	0.228189
4344.39	0.222736
4343.9	0.157001
4343.42	0.114785
4342.94	0.141213
4342.46	0.183791
4341.97	0.179631
4341.49	0.156859
4341.01	0.179719
4340.53	0.227896
4340.05	0.224266
4339.56	0.173601
4339.08	0.152996
4338.6	0.199126
4338.12	0.244334
4337.63	0.220948
4337.15	0.166079
4336.67	0.147532
4336.19	0.170024
4335.71	0.187188
4335.22	0.181577
4334.74	0.172377
4334.26	0.172568
4333.78	0.179326
4333.29	0.188234
4332.81	0.192398
4332.33	0.187079
4331.85	0.189699
4331.36	0.222165
4330.88	0.261655
4330.4	0.246371
4329.92	0.182364
4329.44	0.151405
4328.95	0.182841
4328.47	0.219886
4327.99	0.201116
4327.51	0.160171
4327.02	0.165069
4326.54	0.195693
4326.06	0.183982
4325.58	0.141849
4325.1	0.139049
4324.61	0.188626
4324.13	0.224318
4323.65	0.209027
4323.17	0.186508
4322.68	0.193102
4322.2	0.210186
4321.72	0.200386
4321.24	0.169392
4320.75	0.146482
4320.27	0.142307
4319.79	0.154743
4319.31	0.178271
4318.83	0.197172
4318.34	0.194326
4317.86	0.179948
4317.38	0.178789
4316.9	0.194068
4316.41	0.20834
4315.93	0.209639
4315.45	0.201079
4314.97	0.184495
4314.48	0.166213
4314	0.168603
4313.52	0.198673
4313.04	0.226084
4312.56	0.217991
4312.07	0.190398
4311.59	0.187489
4311.11	0.210077
4310.63	0.21751
4310.14	0.192644
4309.66	0.172998
4309.18	0.183714
4308.7	0.205964
4308.22	0.219333
4307.73	0.224999
4307.25	0.223022
4306.77	0.200815
4306.29	0.164763
4305.8	0.145437
4305.32	0.15672
4304.84	0.177216
4304.36	0.182385
4303.87	0.180182
4303.39	0.187206
4302.91	0.197457
4302.43	0.196884
4301.95	0.188626
4301.46	0.18598
4300.98	0.188412
4300.5	0.191219
4300.02	0.199021
4299.53	0.209843
4299.05	0.203559
4298.57	0.173837
4298.09	0.151794
4297.61	0.167923
4297.12	0.201908
4296.64	0.199882
4296.16	0.153992
4295.68	0.119509
4295.19	0.137117
4294.71	0.17765
4294.23	0.191946
4293.75	0.177544
4293.26	0.176637
4292.78	0.204982
4292.3	0.232147
4291.82	0.233684
4291.34	0.213832
4290.85	0.197963
4290.37	0.197339
4289.89	0.202408
4289.41	0.20289
4288.92	0.191469
4288.44	0.172387
4287.96	0.1636
4287.48	0.179362
4286.99	0.210497
4286.51	0.223292
4286.03	0.209129
4285.55	0.195795
4285.07	0.198108
4284.58	0.197011
4284.1	0.179159
4283.62	0.166911
4283.14	0.179609
4282.65	0.196229
4282.17	0.192264
4281.69	0.18814
4281.21	0.206669
4280.73	0.225463
4280.24	0.217482
4279.76	0.20228
4279.28	0.215685
4278.8	0.239032
4278.31	0.220183
4277.83	0.170794
4277.35	0.146782
4276.87	0.167375
4276.38	0.19318
4275.9	0.194381
4275.42	0.190901
4274.94	0.198881
4274.46	0.19755
4273.97	0.179076
4273.49	0.171808
4273.01	0.194458
4272.53	0.2155
4272.04	0.205479
4271.56	0.184512
4271.08	0.189253
4270.6	0.218944
4270.12	0.236117
4269.63	0.225166
4269.15	0.199581
4268.67	0.182267
4268.19	0.187772
4267.7	0.207011
4267.22	0.215902
4266.74	0.205445
4266.26	0.196943
4265.77	0.208119
4265.29	0.224256
4264.81	0.222868
4264.33	0.216034
4263.85	0.224583
4263.36	0.232026
4262.88	0.209028
4262.4	0.175868
4261.92	0.170825
4261.43	0.184754
4260.95	0.188048
4260.47	0.191824
4259.99	0.224267
4259.5	0.259068
4259.02	0.242024
4258.54	0.184274
4258.06	0.163355
4257.58	0.190535
4257.09	0.196012
4256.61	0.158839
4256.13	0.142296
4255.65	0.177151
4255.16	0.20755
4254.68	0.187811
4254.2	0.169158
4253.72	0.199331
4253.24	0.229663
4252.75	0.202591
4252.27	0.153391
4251.79	0.149206
4251.31	0.183845
4250.82	0.194995
4250.34	0.170797
4249.86	0.156852
4249.38	0.167906
4248.89	0.177352
4248.41	0.171591
4247.93	0.169641
4247.45	0.178462
4246.97	0.185361
4246.48	0.186915
4246	0.192013
4245.52	0.200772
4245.04	0.202536
4244.55	0.192494
4244.07	0.172429
4243.59	0.147775
4243.11	0.137015
4242.63	0.160856
4242.14	0.202265
4241.66	0.215525
4241.18	0.19377
4240.7	0.176756
4240.21	0.186085
4239.73	0.196569
4239.25	0.190458
4238.77	0.191973
4238.28	0.211657
4237.8	0.215974
4237.32	0.188399
4236.84	0.171763
4236.36	0.204561
4235.87	0.241545
4235.39	0.227742
4234.91	0.18455
4234.43	0.169082
4233.94	0.189976
4233.46	0.20886
4232.98	0.210317
4232.5	0.20806
4232.01	0.202547
4231.53	0.184412
4231.05	0.169705
4230.57	0.181299
4230.09	0.205304
4229.6	0.206906
4229.12	0.189922
4228.64	0.184901
4228.16	0.191063
4227.67	0.187004
4227.19	0.176207
4226.71	0.17791
4226.23	0.179631
4225.75	0.158371
4225.26	0.129393
4224.78	0.138239
4224.3	0.179099
4223.82	0.202774
4223.33	0.200743
4222.85	0.202369
4222.37	0.217028
4221.89	0.217849
4221.4	0.196636
4220.92	0.178804
4220.44	0.182363
4219.96	0.191752
4219.48	0.194344
4218.99	0.195622
4218.51	0.19162
4218.03	0.170413
4217.55	0.149376
4217.06	0.164979
4216.58	0.211151
4216.1	0.23454
4215.62	0.211653
4215.14	0.187659
4214.65	0.211169
4214.17	0.254353
4213.69	0.260428
4213.21	0.218803
4212.72	0.176698
4212.24	0.171416
4211.76	0.185512
4211.28	0.191624
4210.79	0.187104
4210.31	0.18422
4209.83	0.186432
4209.35	0.189874
4208.87	0.193888
4208.38	0.197268
4207.9	0.190681
4207.42	0.167176
4206.94	0.142848
4206.45	0.145439
4205.97	0.17764
4205.49	0.209439
4205.01	0.203759
4204.52	0.171416
4204.04	0.161783
4203.56	0.191482
4203.08	0.227327
4202.6	0.230095
4202.11	0.20716
4201.63	0.192226
4201.15	0.194908
4200.67	0.197648
4200.18	0.189205
4199.7	0.177135
4199.22	0.171309
4198.74	0.171602
4198.26	0.176286
4197.77	0.187839
4197.29	0.202976
4196.81	0.207422
4196.33	0.192753
4195.84	0.166671
4195.36	0.147591
4194.88	0.153759
4194.4	0.184207
4193.91	0.215552
4193.43	0.218564
4192.95	0.191724
4192.47	0.169849
4191.99	0.173998
4191.5	0.191797
4191.02	0.20223
4190.54	0.203201
4190.06	0.205047
4189.57	0.206382
4189.09	0.199883
4188.61	0.191486
4188.13	0.193277
4187.65	0.199802
4187.16	0.197037
4186.68	0.185226
4186.2	0.180269
4185.72	0.190166
4185.23	0.204831
4184.75	0.211694
4184.27	0.206071
4183.79	0.188949
4183.3	0.164199
4182.82	0.141487
4182.34	0.134926
4181.86	0.148216
4181.38	0.169971
4180.89	0.189816
4180.41	0.201896
4179.93	0.202456
4179.45	0.198569
4178.96	0.206616
4178.48	0.227593
4178	0.235299
4177.52	0.212098
4177.03	0.178855
4176.55	0.168666
4176.07	0.179681
4175.59	0.180169
4175.11	0.16236
4174.62	0.154408
4174.14	0.172748
4173.66	0.194348
4173.18	0.194952
4172.69	0.18212
4172.21	0.176736
4171.73	0.18015
4171.25	0.181703
4170.77	0.180451
4170.28	0.179173
4169.8	0.172801
4169.32	0.161497
4168.84	0.161274
4168.35	0.179257
4167.87	0.192773
4167.39	0.182634
4166.91	0.168281
4166.42	0.180071
4165.94	0.206781
4165.46	0.212232
4164.98	0.195739
4164.5	0.192344
4164.01	0.209483
4163.53	0.21533
4163.05	0.195924
4162.57	0.184179
4162.08	0.19662
4161.6	0.199784
4161.12	0.17364
4160.64	0.159811
4160.16	0.196097
4159.67	0.244165
4159.19	0.241899
4158.71	0.198564
4158.23	0.182455
4157.74	0.207133
4157.26	0.222728
4156.78	0.205975
4156.3	0.188724
4155.81	0.19214
4155.33	0.191236
4154.85	0.173344
4154.37	0.165894
4153.89	0.178506
4153.4	0.178416
4152.92	0.151908
4152.44	0.140042
4151.96	0.172153
4151.47	0.210009
4150.99	0.203716
4150.51	0.175598
4150.03	0.172765
4149.54	0.189225
4149.06	0.186751
4148.58	0.168767
4148.1	0.173538
4147.62	0.207719
4147.13	0.235623
4146.65	0.241487
4146.17	0.241501
4145.69	0.240589
4145.2	0.228608
4144.72	0.2129
4144.24	0.20897
4143.76	0.210798
4143.28	0.202323
4142.79	0.192121
4142.31	0.197148
4141.83	0.207829
4141.35	0.202608
4140.86	0.189331
4140.38	0.193109
4139.9	0.208042
4139.42	0.206045
4138.93	0.18827
4138.45	0.183888
4137.97	0.19541
4137.49	0.198079
4137.01	0.188665
4136.52	0.191946
4136.04	0.216321
4135.56	0.241012
4135.08	0.249832
4134.59	0.244372
4134.11	0.222226
4133.63	0.185928
4133.15	0.165008
4132.67	0.182302
4132.18	0.20729
4131.7	0.189186
4131.22	0.143349
4130.74	0.138682
4130.25	0.185957
4129.77	0.222441
4129.29	0.213175
4128.81	0.195817
4128.32	0.204351
4127.84	0.209841
4127.36	0.186118
4126.88	0.168865
4126.4	0.194098
4125.91	0.22362
4125.43	0.212041
4124.95	0.17914
4124.47	0.173656
4123.98	0.194942
4123.5	0.195397
4123.02	0.170447
4122.54	0.15617
4122.05	0.168225
4121.57	0.182592
4121.09	0.187746
4120.61	0.204155
4120.13	0.234945
4119.64	0.249647
4119.16	0.23315
4118.68	0.211121
4118.2	0.207162
4117.71	0.213013
4117.23	0.211736
4116.75	0.204413
4116.27	0.200753
4115.79	0.201974
4115.3	0.206756
4114.82	0.21707
4114.34	0.226961
4113.86	0.22114
4113.37	0.199292
4112.89	0.184383
4112.41	0.192734
4111.93	0.212292
4111.44	0.212889
4110.96	0.183028
4110.48	0.152925
4110	0.157234
4109.52	0.195835
4109.03	0.233605
4108.55	0.234462
4108.07	0.205133
4107.59	0.180226
4107.1	0.178612
4106.62	0.191458
4106.14	0.204907
4105.66	0.220186
4105.18	0.237399
4104.69	0.238488
4104.21	0.211
4103.73	0.178843
4103.25	0.173326
4102.76	0.191845
4102.28	0.20269
4101.8	0.182687
4101.32	0.145835
4100.83	0.127715
4100.35	0.146853
4099.87	0.187186
4099.39	0.217549
4098.91	0.224566
4098.42	0.217953
4097.94	0.209668
4097.46	0.201733
4096.98	0.193972
4096.49	0.189339
4096.01	0.184194
4095.53	0.168674
4095.05	0.150161
4094.56	0.158801
4094.08	0.200923
4093.6	0.236586
4093.12	0.222404
4092.64	0.175394
4092.15	0.155985
4091.67	0.181792
4091.19	0.204807
4090.71	0.187298
4090.22	0.164674
4089.74	0.181284
4089.26	0.227552
4088.78	0.25082
4088.3	0.229098
4087.81	0.201198
4087.33	0.193783
4086.85	0.196415
4086.37	0.191003
4085.88	0.17896
4085.4	0.171762
4084.92	0.174265
4084.44	0.185998
4083.95	0.19971
4083.47	0.197898
4082.99	0.168909
4082.51	0.135139
4082.03	0.137351
4081.54	0.18371
4081.06	0.23429
4080.58	0.237755
4080.1	0.200439
4079.61	0.170514
4079.13	0.171753
4078.65	0.190404
4078.17	0.203136
4077.69	0.206096
4077.2	0.204229
4076.72	0.196706
4076.24	0.186948
4075.76	0.185909
4075.27	0.194914
4074.79	0.198566
4074.31	0.185114
4073.83	0.169903
4073.34	0.173746
4072.86	0.192756
4072.38	0.204386
4071.9	0.19978
4071.42	0.188627
4070.93	0.179195
4070.45	0.173987
4069.97	0.176045
4069.49	0.182803
4069	0.180099
4068.52	0.164945
4068.04	0.164235
4067.56	0.195573
4067.07	0.22893
4066.59	0.213537
4066.11	0.167089
4065.63	0.155853
4065.15	0.187858
4064.66	0.202082
4064.18	0.17331
4063.7	0.157331
4063.22	0.191758
4062.73	0.225501
4062.25	0.194625
4061.77	0.137517
4061.29	0.127449
4060.81	0.167592
4060.32	0.195975
4059.84	0.187537
4059.36	0.177983
4058.88	0.185922
4058.39	0.196114
4057.91	0.205323
4057.43	0.223573
4056.95	0.229289
4056.46	0.192791
4055.98	0.14279
4055.5	0.141206
4055.02	0.193426
4054.54	0.232491
4054.05	0.218513
4053.57	0.191477
4053.09	0.195008
4052.61	0.216765
4052.12	0.222891
4051.64	0.212145
4051.16	0.200408
4050.68	0.187927
4050.2	0.175693
4049.71	0.178589
4049.23	0.195651
4048.75	0.19951
4048.27	0.179988
4047.78	0.162537
4047.3	0.169613
4046.82	0.187801
4046.34	0.198882
4045.85	0.206689
4045.37	0.214849
4044.89	0.210585
4044.41	0.19036
4043.93	0.170934
4043.44	0.166564
4042.96	0.17056
4042.48	0.17309
4042	0.17839
4041.51	0.186904
4041.03	0.18691
4040.55	0.181479
4040.07	0.191309
4039.58	0.216405
4039.1	0.227698
4038.62	0.209667
4038.14	0.191085
4037.66	0.19796
4037.17	0.215834
4036.69	0.214756
4036.21	0.189198
4035.73	0.160467
4035.24	0.146029
4034.76	0.152432
4034.28	0.17467
4033.8	0.188814
4033.32	0.179708
4032.83	0.167456
4032.35	0.178752
4031.87	0.201455
4031.39	0.197878
4030.9	0.180408
4030.42	0.200728
4029.94	0.259927
4029.46	0.281421
4028.97	0.211166
4028.49	0.123951
4028.01	0.105193
4027.53	0.141243
4027.05	0.168093
4026.56	0.163833
4026.08	0.160834
4025.6	0.172304
4025.12	0.178611
4024.63	0.173269
4024.15	0.172425
4023.67	0.175252
4023.19	0.167499
4022.71	0.160696
4022.22	0.18136
4021.74	0.213971
4021.26	0.214286
4020.78	0.182377
4020.29	0.166836
4019.81	0.186199
4019.33	0.206151
4018.85	0.19592
4018.36	0.178402
4017.88	0.183381
4017.4	0.195011
4016.92	0.183587
4016.44	0.158178
4015.95	0.153182
4015.47	0.167734
4014.99	0.17404
4014.51	0.165862
4014.02	0.164747
4013.54	0.176292
4013.06	0.17885
4012.58	0.163601
4012.09	0.157523
4011.61	0.181003
4011.13	0.209576
4010.65	0.210142
4010.17	0.192074
4009.68	0.191847
4009.2	0.215695
4008.72	0.226785
4008.24	0.209142
4007.75	0.193556
4007.27	0.205934
4006.79	0.223299
4006.31	0.207265
4005.83	0.168037
4005.34	0.153328
4004.86	0.181
4004.38	0.20449
4003.9	0.185068
4003.41	0.150502
4002.93	0.14743
4002.45	0.176809
4001.97	0.196627
4001.48	0.186604
4001	0.177091
4000.52	0.196441
4000.04	0.22664
3999.56	0.226215
3999.07	0.192298
3998.59	0.164105
3998.11	0.165112
3997.63	0.184701
3997.14	0.201481
3996.66	0.21001
3996.18	0.216006
3995.7	0.217322
3995.22	0.209566
3994.73	0.200555
3994.25	0.200108
3993.77	0.202146
3993.29	0.19218
3992.8	0.175402
3992.32	0.17188
3991.84	0.184978
3991.36	0.193102
3990.87	0.179306
3990.39	0.158963
3989.91	0.153913
3989.43	0.159278
3988.95	0.157925
3988.46	0.154779
3987.98	0.171243
3987.5	0.207266
3987.02	0.234216
3986.53	0.231794
3986.05	0.214967
3985.57	0.206182
3985.09	0.20239
3984.6	0.19086
3984.12	0.180611
3983.64	0.191356
3983.16	0.213984
3982.68	0.218418
3982.19	0.194119
3981.71	0.172849
3981.23	0.178671
3980.75	0.187201
3980.26	0.1722
3979.78	0.152567
3979.3	0.168367
3978.82	0.21402
3978.34	0.232077
3977.85	0.199311
3977.37	0.165974
3976.89	0.173978
3976.41	0.201112
3975.92	0.195219
3975.44	0.16188
3974.96	0.150436
3974.48	0.177728
3973.99	0.210273
3973.51	0.212047
3973.03	0.187818
3972.55	0.160095
3972.07	0.143246
3971.58	0.146515
3971.1	0.174972
3970.62	0.214522
3970.14	0.232857
3969.65	0.215747
3969.17	0.184644
3968.69	0.169864
3968.21	0.172356
3967.72	0.169231
3967.24	0.155758
3966.76	0.148649
3966.28	0.161444
3965.8	0.182441
3965.31	0.190789
3964.83	0.180027
3964.35	0.166263
3963.87	0.170601
3963.38	0.190523
3962.9	0.208766
3962.42	0.208527
3961.94	0.19256
3961.46	0.181263
3960.97	0.184685
3960.49	0.198572
3960.01	0.210861
3959.53	0.210867
3959.04	0.195196
3958.56	0.170435
3958.08	0.153351
3957.6	0.154628
3957.11	0.170491
3956.63	0.191128
3956.15	0.204211
3955.67	0.200938
3955.19	0.186198
3954.7	0.1792
3954.22	0.188776
3953.74	0.191302
3953.26	0.168126
3952.77	0.150084
3952.29	0.18417
3951.81	0.244829
3951.33	0.255489
3950.85	0.195021
3950.36	0.13871
3949.88	0.148484
3949.4	0.179993
3948.92	0.172019
3948.43	0.152121
3947.95	0.180071
3947.47	0.226608
3946.99	0.217586
3946.5	0.15802
3946.02	0.132334
3945.54	0.16305
3945.06	0.189521
3944.58	0.175303
3944.09	0.156415
3943.61	0.168959
3943.13	0.187954
3942.65	0.181229
3942.16	0.166833
3941.68	0.174441
3941.2	0.192704
3940.72	0.19756
3940.23	0.195974
3939.75	0.20401
3939.27	0.213267
3938.79	0.207691
3938.31	0.193251
3937.82	0.183597
3937.34	0.176986
3936.86	0.171131
3936.38	0.177668
3935.89	0.201236
3935.41	0.221809
3934.93	0.214218
3934.45	0.18387
3933.97	0.164397
3933.48	0.175575
3933	0.203928
3932.52	0.216592
3932.04	0.200299
3931.55	0.190669
3931.07	0.222701
3930.59	0.267896
3930.11	0.256932
3929.62	0.187158
3929.14	0.136588
3928.66	0.15491
3928.18	0.204902
3927.7	0.215089
3927.21	0.193673
3926.73	0.193854
3926.25	0.213567
3925.77	0.207171
3925.28	0.177189
3924.8	0.180397
3924.32	0.217818
3923.84	0.222872
3923.36	0.168683
3922.87	0.118983
3922.39	0.130171
3921.91	0.173701
3921.43	0.194668
3920.94	0.184511
3920.46	0.168934
3919.98	0.168273
3919.5	0.186084
3919.01	0.212667
3918.53	0.223593
3918.05	0.200069
3917.57	0.163828
3917.09	0.161149
3916.6	0.197591
3916.12	0.218124
3915.64	0.198517
3915.16	0.188227
3914.67	0.22319
3914.19	0.266264
3913.71	0.261416
3913.23	0.217606
3912.74	0.185604
3912.26	0.185427
3911.78	0.193315
3911.3	0.188486
3910.82	0.176599
3910.33	0.169428
3909.85	0.168285
3909.37	0.172302
3908.89	0.182834
3908.4	0.19486
3907.92	0.200059
3907.44	0.198817
3906.96	0.198321
3906.48	0.201881
3905.99	0.20186
3905.51	0.188784
3905.03	0.165767
3904.55	0.159409
3904.06	0.192938
3903.58	0.236178
3903.1	0.243225
3902.62	0.207769
3902.13	0.175785
3901.65	0.181068
3901.17	0.192486
3900.69	0.174007
3900.21	0.147161
3899.72	0.153747
3899.24	0.178416
3898.76	0.178099
3898.28	0.159912
3897.79	0.163363
3897.31	0.187941
3896.83	0.194527
3896.35	0.175254
3895.87	0.166412
3895.38	0.186786
3894.9	0.210361
3894.42	0.206302
3893.94	0.188532
3893.45	0.192713
3892.97	0.219785
3892.49	0.235707
3892.01	0.211985
3891.52	0.161988
3891.04	0.138468
3890.56	0.163779
3890.08	0.197758
3889.6	0.196711
3889.11	0.169483
3888.63	0.157015
3888.15	0.168088
3887.67	0.173844
3887.18	0.157943
3886.7	0.148113
3886.22	0.168327
3885.74	0.192391
3885.25	0.1779
3884.77	0.151814
3884.29	0.161723
3883.81	0.19
3883.33	0.194012
3882.84	0.17276
3882.36	0.162826
3881.88	0.176767
3881.4	0.196037
3880.91	0.20957
3880.43	0.224295
3879.95	0.236464
3879.47	0.23142
3878.99	0.218003
3878.5	0.211513
3878.02	0.204113
3877.54	0.18786
3877.06	0.182319
3876.57	0.204195
3876.09	0.228799
3875.61	0.223922
3875.13	0.202002
3874.64	0.200675
3874.16	0.219309
3873.68	0.218829
3873.2	0.199756
3872.72	0.201628
3872.23	0.221228
3871.75	0.214795
3871.27	0.172611
3870.79	0.13037
3870.3	0.125793
3869.82	0.149823
3869.34	0.160643
3868.86	0.161007
3868.38	0.174484
3867.89	0.195334
3867.41	0.20119
3866.93	0.194492
3866.45	0.187077
3865.96	0.183576
3865.48	0.18383
3865	0.185429
3864.52	0.18587
3864.03	0.187513
3863.55	0.195753
3863.07	0.206036
3862.59	0.20309
3862.11	0.183698
3861.62	0.165084
3861.14	0.160158
3860.66	0.160986
3860.18	0.158891
3859.69	0.164195
3859.21	0.185642
3858.73	0.210656
3858.25	0.219875
3857.76	0.214083
3857.28	0.206035
3856.8	0.198559
3856.32	0.194
3855.84	0.204033
3855.35	0.228977
3854.87	0.242678
3854.39	0.215514
3853.91	0.173404
3853.42	0.170325
3852.94	0.193477
3852.46	0.19208
3851.98	0.167457
3851.5	0.16226
3851.01	0.182195
3850.53	0.199228
3850.05	0.194284
3849.57	0.171523
3849.08	0.149372
3848.6	0.150826
3848.12	0.180298
3847.64	0.206554
3847.15	0.191992
3846.67	0.150223
3846.19	0.134943
3845.71	0.160617
3845.23	0.191533
3844.74	0.197264
3844.26	0.191599
3843.78	0.193162
3843.3	0.18689
3842.81	0.167229
3842.33	0.165104
3841.85	0.193893
3841.37	0.217148
3840.89	0.203276
3840.4	0.181427
3839.92	0.18498
3839.44	0.196889
3838.96	0.194725
3838.47	0.198893
3837.99	0.227511
3837.51	0.239536
3837.03	0.209495
3836.54	0.190088
3836.06	0.211715
3835.58	0.226376
3835.1	0.185705
3834.62	0.139182
3834.13	0.147631
3833.65	0.181056
3833.17	0.185838
3832.69	0.173179
3832.2	0.187392
3831.72	0.217991
3831.24	0.213
3830.76	0.179271
3830.27	0.175872
3829.79	0.205888
3829.31	0.21726
3828.83	0.199036
3828.35	0.187674
3827.86	0.202492
3827.38	0.21932
3826.9	0.222975
3826.42	0.228277
3825.93	0.236845
3825.45	0.229002
3824.97	0.210643
3824.49	0.204513
3824.01	0.206713
3823.52	0.197545
3823.04	0.185328
3822.56	0.193074
3822.08	0.211939
3821.59	0.202004
3821.11	0.166759
3820.63	0.171284
3820.15	0.220771
3819.66	0.245557
3819.18	0.212544
3818.7	0.173387
3818.22	0.164871
3817.74	0.178035
3817.25	0.18883
3816.77	0.189065
3816.29	0.186299
3815.81	0.185205
3815.32	0.187345
3814.84	0.195385
3814.36	0.206269
3813.88	0.213021
3813.4	0.210775
3812.91	0.196529
3812.43	0.173028
3811.95	0.155465
3811.47	0.158065
3810.98	0.171731
3810.5	0.172367
3810.02	0.160821
3809.54	0.169381
3809.05	0.206588
3808.57	0.236539
3808.09	0.227464
3807.61	0.202499
3807.13	0.205955
3806.64	0.233862
3806.16	0.238759
3805.68	0.215547
3805.2	0.197992
3804.71	0.187464
3804.23	0.170121
3803.75	0.155034
3803.27	0.161559
3802.78	0.183183
3802.3	0.195298
3801.82	0.187899
3801.34	0.174768
3800.86	0.166186
3800.37	0.16224
3799.89	0.169675
3799.41	0.186763
3798.93	0.19807
3798.44	0.199621
3797.96	0.204008
3797.48	0.211516
3797	0.201125
3796.52	0.171699
3796.03	0.155399
3795.55	0.16891
3795.07	0.177988
3794.59	0.162361
3794.1	0.156574
3793.62	0.186086
3793.14	0.220407
3792.66	0.212869
3792.17	0.180229
3791.69	0.168618
3791.21	0.17695
3790.73	0.176396
3790.25	0.168533
3789.76	0.175362
3789.28	0.182846
3788.8	0.163262
3788.32	0.136939
3787.83	0.148918
3787.35	0.195989
3786.87	0.217855
3786.39	0.188207
3785.91	0.145689
3785.42	0.13672
3784.94	0.162644
3784.46	0.1923
3783.98	0.206269
3783.49	0.203669
3783.01	0.195566
3782.53	0.196889
3782.05	0.207888
3781.56	0.208347
3781.08	0.190251
3780.6	0.171564
3780.12	0.166554
3779.64	0.166194
3779.15	0.160334
3778.67	0.166254
3778.19	0.193136
3777.71	0.214573
3777.22	0.203136
3776.74	0.179463
3776.26	0.175075
3775.78	0.184018
3775.29	0.18532
3774.81	0.184252
3774.33	0.192706
3773.85	0.19423
3773.37	0.173745
3772.88	0.158836
3772.4	0.17894
3771.92	0.21195
3771.44	0.213726
3770.95	0.192045
3770.47	0.193941
3769.99	0.222246
3769.51	0.227657
3769.03	0.196109
3768.54	0.17184
3768.06	0.17638
3767.58	0.183556
3767.1	0.180875
3766.61	0.182759
3766.13	0.191098
3765.65	0.184503
3765.17	0.166067
3764.68	0.16256
3764.2	0.175484
3763.72	0.175174
3763.24	0.159364
3762.76	0.15809
3762.27	0.185394
3761.79	0.211938
3761.31	0.213099
3760.83	0.200142
3760.34	0.189706
3759.86	0.18363
3759.38	0.181313
3758.9	0.186947
3758.42	0.191785
3757.93	0.181726
3757.45	0.171579
3756.97	0.187907
3756.49	0.224423
3756	0.235404
3755.52	0.206564
3755.04	0.175031
3754.56	0.16671
3754.07	0.17386
3753.59	0.183497
3753.11	0.199702
3752.63	0.219724
3752.15	0.213866
3751.66	0.179951
3751.18	0.156397
3750.7	0.159143
3750.22	0.165203
3749.73	0.157884
3749.25	0.159075
3748.77	0.186417
3748.29	0.20668
3747.8	0.19816
3747.32	0.185746
3746.84	0.18652
3746.36	0.191461
3745.88	0.189403
3745.39	0.188302
3744.91	0.196691
3744.43	0.192254
3743.95	0.161962
3743.46	0.14774
3742.98	0.165257
3742.5	0.183574
3742.02	0.180447
3741.54	0.170254
3741.05	0.171497
3740.57	0.178606
3740.09	0.180741
3739.61	0.188322
3739.12	0.210888
3738.64	0.225535
3738.16	0.205989
3737.68	0.169854
3737.19	0.163565
3736.71	0.194349
3736.23	0.209951
3735.75	0.181475
3735.27	0.154833
3734.78	0.187853
3734.3	0.242683
3733.82	0.250487
3733.34	0.201575
3732.85	0.153983
3732.37	0.165751
3731.89	0.210249
3731.41	0.223163
3730.93	0.190823
3730.44	0.163511
3729.96	0.17365
3729.48	0.198967
3729	0.204808
3728.51	0.191755
3728.03	0.187739
3727.55	0.202263
3727.07	0.214608
3726.58	0.206195
3726.1	0.189277
3725.62	0.183366
3725.14	0.185717
3724.66	0.184786
3724.17	0.185518
3723.69	0.197661
3723.21	0.213801
3722.73	0.21378
3722.24	0.19199
3721.76	0.169558
3721.28	0.166295
3720.8	0.178589
3720.31	0.191237
3719.83	0.195154
3719.35	0.19183
3718.87	0.187122
3718.39	0.183217
3717.9	0.178239
3717.42	0.172487
3716.94	0.170863
3716.46	0.177888
3715.97	0.19072
3715.49	0.200579
3715.01	0.202664
3714.53	0.199913
3714.05	0.197428
3713.56	0.197736
3713.08	0.200722
3712.6	0.202213
3712.12	0.192738
3711.63	0.170857
3711.15	0.154671
3710.67	0.16342
3710.19	0.19369
3709.7	0.216495
3709.22	0.207371
3708.74	0.181242
3708.26	0.173871
3707.78	0.193737
3707.29	0.213749
3706.81	0.209329
3706.33	0.190673
3705.85	0.185382
3705.36	0.202678
3704.88	0.221063
3704.4	0.217261
3703.92	0.19882
3703.44	0.187442
3702.95	0.19377
3702.47	0.211711
3701.99	0.230587
3701.51	0.244968
3701.02	0.246823
3700.54	0.229307
3700.06	0.20252
3699.58	0.182996
3699.09	0.177497
3698.61	0.179961
3698.13	0.181904
3697.65	0.184371
3697.17	0.192114
3696.68	0.201117
3696.2	0.202315
3695.72	0.19673
3695.24	0.192852
3694.75	0.192832
3694.27	0.18939
3693.79	0.180736
3693.31	0.177806
3692.82	0.189638
3692.34	0.207244
3691.86	0.208721
3691.38	0.187382
3690.9	0.169452
3690.41	0.175646
3689.93	0.192524
3689.45	0.201192
3688.97	0.206079
3688.48	0.225047
3688	0.242316
3687.52	0.218382
3687.04	0.164409
3686.56	0.139002
3686.07	0.165929
3685.59	0.20695
3685.11	0.213723
3684.63	0.191651
3684.14	0.181984
3683.66	0.196393
3683.18	0.203902
3682.7	0.187519
3682.21	0.173881
3681.73	0.185096
3681.25	0.200271
3680.77	0.188605
3680.29	0.163806
3679.8	0.164142
3679.32	0.191788
3678.84	0.20776
3678.36	0.195942
3677.87	0.179435
3677.39	0.177072
3676.91	0.177086
3676.43	0.162298
3675.95	0.143451
3675.46	0.146832
3674.98	0.167038
3674.5	0.174805
3674.02	0.175254
3673.53	0.185284
3673.05	0.196716
3672.57	0.196787
3672.09	0.19166
3671.6	0.198248
3671.12	0.214473
3670.64	0.21326
3670.16	0.188309
3669.68	0.175512
3669.19	0.195211
3668.71	0.21229
3668.23	0.194591
3667.75	0.164475
3667.26	0.164194
3666.78	0.189352
3666.3	0.201233
3665.82	0.18601
3665.33	0.169188
3664.85	0.177409
3664.37	0.20012
3663.89	0.208585
3663.41	0.198237
3662.92	0.187645
3662.44	0.185557
3661.96	0.182788
3661.48	0.176019
3660.99	0.175512
3660.51	0.185741
3660.03	0.196586
3659.55	0.199815
3659.07	0.200192
3658.58	0.203512
3658.1	0.205682
3657.62	0.202536
3657.14	0.199672
3656.65	0.203865
3656.17	0.207579
3655.69	0.197265
3655.21	0.177813
3654.72	0.168794
3654.24	0.17626
3653.76	0.188254
3653.28	0.193283
3652.8	0.191235
3652.31	0.191144
3651.83	0.19852
3651.35	0.206936
3650.87	0.202166
3650.38	0.179813
3649.9	0.157159
3649.42	0.154715
3648.94	0.171821
3648.46	0.185318
3647.97	0.182574
3647.49	0.172095
3647.01	0.164846
3646.53	0.163977
3646.04	0.166997
3645.56	0.173848
3645.08	0.185765
3644.6	0.200153
3644.11	0.211551
3643.63	0.216035
3643.15	0.212565
3642.67	0.202488
3642.19	0.189473
3641.7	0.178332
3641.22	0.173804
3640.74	0.17974
3640.26	0.195708
3639.77	0.211789
3639.29	0.211631
3638.81	0.192061
3638.33	0.175086
3637.84	0.184291
3637.36	0.210164
3636.88	0.219123
3636.4	0.205252
3635.92	0.196344
3635.43	0.20689
3634.95	0.214308
3634.47	0.199965
3633.99	0.183528
3633.5	0.192689
3633.02	0.212307
3632.54	0.206945
3632.06	0.186458
3631.58	0.184653
3631.09	0.206327
3630.61	0.221203
3630.13	0.215387
3629.65	0.212722
3629.16	0.225394
3628.68	0.215358
3628.2	0.176045
3627.72	0.167386
3627.23	0.213362
3626.75	0.256226
3626.27	0.240526
3625.79	0.192486
3625.31	0.165118
3624.82	0.174121
3624.34	0.192466
3623.86	0.19682
3623.38	0.193383
3622.89	0.191231
3622.41	0.190621
3621.93	0.194783
3621.45	0.206247
3620.97	0.213453
3620.48	0.201387
3620	0.178907
3619.52	0.172135
3619.04	0.180761
3618.55	0.183668
3618.07	0.181231
3617.59	0.192399
3617.11	0.210152
3616.62	0.208667
3616.14	0.189681
3615.66	0.18274
3615.18	0.196196
3614.7	0.205457
3614.21	0.194731
3613.73	0.184215
3613.25	0.192964
3612.77	0.206248
3612.28	0.202898
3611.8	0.191613
3611.32	0.188321
3610.84	0.186282
3610.35	0.17732
3609.87	0.174154
3609.39	0.190325
3608.91	0.20804
3608.43	0.202766
3607.94	0.185687
3607.46	0.18039
3606.98	0.18454
3606.5	0.183324
3606.01	0.179436
3605.53	0.183744
3605.05	0.190716
3604.57	0.190932
3604.09	0.19171
3603.6	0.202215
3603.12	0.209514
3602.64	0.198253
3602.16	0.180911
3601.67	0.181942
3601.19	0.196388
3600.71	0.198436
3600.23	0.186856
3599.74	0.184029
3599.26	0.193483
3598.78	0.193138
3598.3	0.179168
3597.82	0.173571
3597.33	0.18448
3596.85	0.191804
3596.37	0.184965
3595.89	0.183452
3595.4	0.199867
3594.92	0.212328
3594.44	0.200564
3593.96	0.182661
3593.48	0.18537
3592.99	0.201721
3592.51	0.20375
3592.03	0.188184
3591.55	0.175021
3591.06	0.176345
3590.58	0.186136
3590.1	0.195701
3589.62	0.201777
3589.13	0.199692
3588.65	0.187092
3588.17	0.174406
3587.69	0.172871
3587.21	0.179378
3586.72	0.183517
3586.24	0.18394
3585.76	0.185698
3585.28	0.186499
3584.79	0.182728
3584.31	0.180516
3583.83	0.186968
3583.35	0.193977
3582.86	0.186981
3582.38	0.16899
3581.9	0.160184
3581.42	0.169553
3580.94	0.184307
3580.45	0.189749
3579.97	0.187897
3579.49	0.190343
3579.01	0.196986
3578.52	0.198225
3578.04	0.192755
3577.56	0.190863
3577.08	0.197518
3576.6	0.202818
3576.11	0.196144
3575.63	0.183296
3575.15	0.179457
3574.67	0.188655
3574.18	0.200526
3573.7	0.204005
3573.22	0.199221
3572.74	0.19282
3572.25	0.189051
3571.77	0.189527
3571.29	0.193784
3570.81	0.197094
3570.33	0.194202
3569.84	0.188899
3569.36	0.190575
3568.88	0.198178
3568.4	0.198281
3567.91	0.186747
3567.43	0.182889
3566.95	0.198805
3566.47	0.215667
3565.99	0.20967
3565.5	0.191231
3565.02	0.183551
3564.54	0.184835
3564.06	0.18155
3563.57	0.179514
3563.09	0.194645
3562.61	0.217875
3562.13	0.219382
3561.64	0.195092
3561.16	0.177729
3560.68	0.18515
3560.2	0.195589
3559.72	0.1853
3559.23	0.168553
3558.75	0.170158
3558.27	0.183404
3557.79	0.183864
3557.3	0.171945
3556.82	0.169823
3556.34	0.182871
3555.86	0.193562
3555.37	0.193165
3554.89	0.192214
3554.41	0.194564
3553.93	0.189552
3553.45	0.176815
3552.96	0.174157
3552.48	0.188741
3552	0.200108
3551.52	0.192609
3551.03	0.183745
3550.55	0.193749
3550.07	0.20959
3549.59	0.203708
3549.11	0.180954
3548.62	0.173073
3548.14	0.192396
3547.66	0.212605
3547.18	0.207567
3546.69	0.191238
3546.21	0.191947
3545.73	0.207703
3545.25	0.211721
3544.76	0.198303
3544.28	0.188658
3543.8	0.194783
3543.32	0.201445
3542.84	0.192856
3542.35	0.178985
3541.87	0.178381
3541.39	0.190083
3540.91	0.195761
3540.42	0.188462
3539.94	0.18146
3539.46	0.18776
3538.98	0.201432
3538.49	0.20661
3538.01	0.200194
3537.53	0.194048
3537.05	0.197143
3536.57	0.202644
3536.08	0.198641
3535.6	0.187011
3535.12	0.181203
3534.64	0.185765
3534.15	0.189902
3533.67	0.185762
3533.19	0.181258
3532.71	0.18562
3532.23	0.191606
3531.74	0.187449
3531.26	0.179646
3530.78	0.185222
3530.3	0.202735
3529.81	0.210915
3529.33	0.201136
3528.85	0.189955
3528.37	0.191369
3527.88	0.196348
3527.4	0.193842
3526.92	0.191646
3526.44	0.198836
3525.96	0.20404
3525.47	0.193107
3524.99	0.176102
3524.51	0.173609
3524.03	0.185796
3523.54	0.193704
3523.06	0.189822
3522.58	0.185441
3522.1	0.187919
3521.62	0.191159
3521.13	0.191981
3520.65	0.195544
3520.17	0.200906
3519.69	0.198506
3519.2	0.187044
3518.72	0.17835
3518.24	0.17934
3517.76	0.182591
3517.27	0.181898
3516.79	0.182656
3516.31	0.189471
3515.83	0.195549
3515.35	0.194413
3514.86	0.190933
3514.38	0.191487
3513.9	0.192685
3513.42	0.189097
3512.93	0.184928
3512.45	0.187033
3511.97	0.192567
3511.49	0.19331
3511	0.189515
3510.52	0.188781
3510.04	0.192062
3509.56	0.191589
3509.08	0.184902
3508.59	0.180963
3508.11	0.186674
3507.63	0.194973
3507.15	0.194467
3506.66	0.186464
3506.18	0.182493
3505.7	0.186892
3505.22	0.190827
3504.74	0.187109
3504.25	0.182967
3503.77	0.188321
3503.29	0.198153
3502.81	0.198437
3502.32	0.188995
3501.84	0.184509
3501.36	0.190968
3500.88	0.197256
3500.39	0.194385
3499.91	0.188763
3499.43	0.189153
3498.95	0.192294
3498.47	0.191312
3497.98	0.187761
3497.5	0.184849
3497.02	0.179492
3496.54	0.172056
3496.05	0.173284
3495.57	0.188492
3495.09	0.201322
3494.61	0.194271
3494.13	0.178499
3493.64	0.177305
3493.16	0.191941
3492.68	0.198953
3492.2	0.18739
3491.71	0.174748
3491.23	0.177364
3490.75	0.187693
3490.27	0.190019
3489.78	0.185641
3489.3	0.186134
3488.82	0.192332
3488.34	0.194575
3487.86	0.189459
3487.37	0.184537
3486.89	0.18573
3486.41	0.190593
3485.93	0.195001
3485.44	0.197386
3484.96	0.196101
3484.48	0.189148
3484	0.178769
3483.51	0.173173
3483.03	0.179326
3482.55	0.192354
3482.07	0.199042
3481.59	0.19323
3481.1	0.183651
3480.62	0.18303
3480.14	0.190675
3479.66	0.194079
3479.17	0.186447
3478.69	0.176659
3478.21	0.177276
3477.73	0.188138
3477.25	0.19864
3476.76	0.200676
3476.28	0.195077
3475.8	0.187823
3475.32	0.183812
3474.83	0.183728
3474.35	0.184486
3473.87	0.183675
3473.39	0.184193
3472.9	0.190322
3472.42	0.198363
3471.94	0.198596
3471.46	0.189212
3470.98	0.18144
3470.49	0.184478
3470.01	0.192617
3469.53	0.195095
3469.05	0.191864
3468.56	0.191333
3468.08	0.195626
3467.6	0.197949
3467.12	0.193611
3466.64	0.186007
3466.15	0.181007
3465.67	0.181294
3465.19	0.186464
3464.71	0.19301
3464.22	0.19487
3463.74	0.189331
3463.26	0.181747
3462.78	0.17993
3462.29	0.185288
3461.81	0.19255
3461.33	0.195986
3460.85	0.193745
3460.37	0.187782
3459.88	0.182476
3459.4	0.182309
3458.92	0.187202
3458.44	0.191918
3457.95	0.192521
3457.47	0.18949
3456.99	0.184725
3456.51	0.180032
3456.02	0.178523
3455.54	0.182372
3455.06	0.187978
3454.58	0.188624
3454.1	0.184334
3453.61	0.181867
3453.13	0.183077
3452.65	0.182613
3452.17	0.17905
3451.68	0.178703
3451.2	0.184438
3450.72	0.190345
3450.24	0.192209
3449.76	0.193026
3449.27	0.194023
3448.79	0.190956
3448.31	0.185088
3447.83	0.18556
3447.34	0.19406
3446.86	0.197978
3446.38	0.18998
3445.9	0.181278
3445.41	0.183414
3444.93	0.190609
3444.45	0.191974
3443.97	0.190491
3443.49	0.193751
3443	0.196821
3442.52	0.191025
3442.04	0.182775
3441.56	0.184705
3441.07	0.194212
3440.59	0.19811
3440.11	0.195019
3439.63	0.194354
3439.15	0.196268
3438.66	0.192137
3438.18	0.183736
3437.7	0.182279
3437.22	0.187423
3436.73	0.187188
3436.25	0.180749
3435.77	0.182039
3435.29	0.194887
3434.8	0.203484
3434.32	0.197061
3433.84	0.187143
3433.36	0.18764
3432.88	0.194174
3432.39	0.194283
3431.91	0.188867
3431.43	0.188757
3430.95	0.196044
3430.46	0.202656
3429.98	0.203173
3429.5	0.19977
3429.02	0.195319
3428.53	0.191164
3428.05	0.190309
3427.57	0.19418
3427.09	0.197734
3426.61	0.195243
3426.12	0.189289
3425.64	0.187891
3425.16	0.193163
3424.68	0.199119
3424.19	0.200336
3423.71	0.197403
3423.23	0.193397
3422.75	0.190183
3422.27	0.189394
3421.78	0.191572
3421.3	0.193029
3420.82	0.189214
3420.34	0.182844
3419.85	0.182965
3419.37	0.192027
3418.89	0.200088
3418.41	0.197312
3417.92	0.187002
3417.44	0.180775
3416.96	0.182572
3416.48	0.185905
3416	0.186463
3415.51	0.187685
3415.03	0.192312
3414.55	0.196597
3414.07	0.197687
3413.58	0.199068
3413.1	0.202638
3412.62	0.20232
3412.14	0.193375
3411.66	0.182765
3411.17	0.180636
3410.69	0.185238
3410.21	0.186291
3409.73	0.181736
3409.24	0.180209
3408.76	0.18602
3408.28	0.192233
3407.8	0.191906
3407.31	0.18852
3406.83	0.189905
3406.35	0.196608
3405.87	0.20155
3405.39	0.198734
3404.9	0.189896
3404.42	0.183411
3403.94	0.18628
3403.46	0.19546
3402.97	0.1993
3402.49	0.19289
3402.01	0.186477
3401.53	0.190418
3401.04	0.199011
3400.56	0.198878
3400.08	0.189956
3399.6	0.184583
3399.12	0.187138
3398.63	0.18928
3398.15	0.186439
3397.67	0.1849
3397.19	0.187857
3396.7	0.188862
3396.22	0.185244
3395.74	0.184596
3395.26	0.190535
3394.78	0.194866
3394.29	0.19164
3393.81	0.187688
3393.33	0.189213
3392.85	0.189865
3392.36	0.183613
3391.88	0.178634
3391.4	0.184878
3390.92	0.195473
3390.43	0.195759
3389.95	0.186167
3389.47	0.181312
3388.99	0.187812
3388.51	0.195232
3388.02	0.191819
3387.54	0.180626
3387.06	0.174102
3386.58	0.178548
3386.09	0.188093
3385.61	0.192839
3385.13	0.190648
3384.65	0.188139
3384.17	0.189931
3383.68	0.192027
3383.2	0.189641
3382.72	0.186069
3382.24	0.187117
3381.75	0.190481
3381.27	0.190205
3380.79	0.187794
3380.31	0.188015
3379.82	0.186843
3379.34	0.17729
3378.86	0.166432
3378.38	0.170214
3377.9	0.188833
3377.41	0.202681
3376.93	0.197977
3376.45	0.184948
3375.97	0.179855
3375.48	0.183033
3375	0.186005
3374.52	0.187022
3374.04	0.189191
3373.55	0.190639
3373.07	0.187666
3372.59	0.182878
3372.11	0.181889
3371.63	0.185257
3371.14	0.190203
3370.66	0.195282
3370.18	0.19856
3369.7	0.197005
3369.21	0.19204
3368.73	0.18986
3368.25	0.19203
3367.77	0.192363
3367.29	0.188003
3366.8	0.18522
3366.32	0.188267
3365.84	0.191082
3365.36	0.187389
3364.87	0.182135
3364.39	0.183702
3363.91	0.190116
3363.43	0.192988
3362.94	0.190113
3362.46	0.186874
3361.98	0.18742
3361.5	0.191391
3361.02	0.196784
3360.53	0.199626
3360.05	0.194813
3359.57	0.18342
3359.09	0.175542
3358.6	0.178902
3358.12	0.187437
3357.64	0.189775
3357.16	0.185353
3356.68	0.183829
3356.19	0.189804
3355.71	0.196728
3355.23	0.197379
3354.75	0.192897
3354.26	0.189008
3353.78	0.188444
3353.3	0.190163
3352.82	0.192474
3352.33	0.194219
3351.85	0.194653
3351.37	0.193888
3350.89	0.192853
3350.41	0.192044
3349.92	0.190746
3349.44	0.187678
3348.96	0.18274
3348.48	0.178864
3347.99	0.180587
3347.51	0.188573
3347.03	0.196066
3346.55	0.194716
3346.06	0.185897
3345.58	0.180584
3345.1	0.185776
3344.62	0.195331
3344.14	0.197685
3343.65	0.190942
3343.17	0.184329
3342.69	0.185008
3342.21	0.189741
3341.72	0.191622
3341.24	0.190019
3340.76	0.189594
3340.28	0.191493
3339.8	0.191167
3339.31	0.186762
3338.83	0.18415
3338.35	0.18883
3337.87	0.196115
3337.38	0.196565
3336.9	0.189938
3336.42	0.186025
3335.94	0.189709
3335.45	0.193455
3334.97	0.190399
3334.49	0.185919
3334.01	0.188134
3333.53	0.193554
3333.04	0.193211
3332.56	0.188708
3332.08	0.189457
3331.6	0.195244
3331.11	0.195414
3330.63	0.187224
3330.15	0.182319
3329.67	0.188957
3329.19	0.198423
3328.7	0.19798
3328.22	0.189049
3327.74	0.183681
3327.26	0.186902
3326.77	0.192162
3326.29	0.192675
3325.81	0.189368
3325.33	0.187161
3324.84	0.188427
3324.36	0.191006
3323.88	0.190072
3323.4	0.183544
3322.92	0.176694
3322.43	0.177804
3321.95	0.187463
3321.47	0.195332
3320.99	0.19289
3320.5	0.18517
3320.02	0.182232
3319.54	0.185269
3319.06	0.187968
3318.57	0.188303
3318.09	0.19037
3317.61	0.194503
3317.13	0.19527
3316.65	0.191544
3316.16	0.189637
3315.68	0.192832
3315.2	0.195786
3314.72	0.193599
3314.23	0.189717
3313.75	0.188595
3313.27	0.187663
3312.79	0.183651
3312.31	0.181079
3311.82	0.185713
3311.34	0.193582
3310.86	0.195289
3310.38	0.190106
3309.89	0.186028
3309.41	0.186718
3308.93	0.188291
3308.45	0.188688
3307.96	0.190982
3307.48	0.194936
3307	0.194836
3306.52	0.189172
3306.04	0.184705
3305.55	0.185954
3305.07	0.188486
3304.59	0.186991
3304.11	0.183586
3303.62	0.183101
3303.14	0.18578
3302.66	0.189563
3302.18	0.193613
3301.7	0.195801
3301.21	0.193134
3300.73	0.18811
3300.25	0.187493
3299.77	0.191366
3299.28	0.190787
3298.8	0.182622
3298.32	0.176665
3297.84	0.180255
3297.35	0.186264
3296.87	0.185258
3296.39	0.182177
3295.91	0.186731
3295.43	0.195044
3294.94	0.195364
3294.46	0.188156
3293.98	0.185461
3293.5	0.190756
3293.01	0.194602
3292.53	0.191326
3292.05	0.187048
3291.57	0.188044
3291.08	0.192026
3290.6	0.194539
3290.12	0.195043
3289.64	0.193235
3289.16	0.187933
3288.67	0.182707
3288.19	0.18436
3287.71	0.192714
3287.23	0.19869
3286.74	0.196378
3286.26	0.190955
3285.78	0.190047
3285.3	0.193605
3284.82	0.195925
3284.33	0.193958
3283.85	0.190062
3283.37	0.187944
3282.89	0.18821
3282.4	0.188156
3281.92	0.18635
3281.44	0.186349
3280.96	0.191939
3280.47	0.198145
3279.99	0.194489
3279.51	0.180791
3279.03	0.172051
3278.55	0.179818
3278.06	0.195464
3277.58	0.20172
3277.1	0.195388
3276.62	0.188522
3276.13	0.189329
3275.65	0.192966
3275.17	0.191593
3274.69	0.185199
3274.21	0.179307
3273.72	0.178003
3273.24	0.18142
3272.76	0.185787
3272.28	0.186792
3271.79	0.185223
3271.31	0.185964
3270.83	0.189421
3270.35	0.189292
3269.86	0.183477
3269.38	0.180054
3268.9	0.185705
3268.42	0.194002
3267.94	0.194256
3267.45	0.188079
3266.97	0.186301
3266.49	0.192604
3266.01	0.199693
3265.52	0.200911
3265.04	0.197128
3264.56	0.1923
3264.08	0.189257
3263.59	0.189221
3263.11	0.190668
3262.63	0.190001
3262.15	0.186867
3261.67	0.185761
3261.18	0.188412
3260.7	0.190305
3260.22	0.188955
3259.74	0.189258
3259.25	0.194368
3258.77	0.198485
3258.29	0.195972
3257.81	0.190741
3257.33	0.188941
3256.84	0.188541
3256.36	0.185404
3255.88	0.182276
3255.4	0.182641
3254.91	0.182442
3254.43	0.178607
3253.95	0.178007
3253.47	0.186313
3252.98	0.195055
3252.5	0.192787
3252.02	0.184129
3251.54	0.182395
3251.06	0.187899
3250.57	0.189578
3250.09	0.185292
3249.61	0.183929
3249.13	0.187773
3248.64	0.189114
3248.16	0.185988
3247.68	0.185898
3247.2	0.190878
3246.72	0.192319
3246.23	0.186169
3245.75	0.180892
3245.27	0.183214
3244.79	0.187723
3244.3	0.186618
3243.82	0.182505
3243.34	0.182749
3242.86	0.18692
3242.37	0.188399
3241.89	0.185227
3241.41	0.182629
3240.93	0.184524
3240.45	0.188324
3239.96	0.189542
3239.48	0.188329
3239	0.188609
3238.52	0.191596
3238.03	0.193836
3237.55	0.192629
3237.07	0.189903
3236.59	0.18797
3236.1	0.185383
3235.62	0.181665
3235.14	0.181952
3234.66	0.189645
3234.18	0.197663
3233.69	0.196632
3233.21	0.189829
3232.73	0.188912
3232.25	0.195544
3231.76	0.198696
3231.28	0.192724
3230.8	0.185373
3230.32	0.183351
3229.84	0.183894
3229.35	0.184853
3228.87	0.190162
3228.39	0.198682
3227.91	0.200257
3227.42	0.191337
3226.94	0.18334
3226.46	0.185271
3225.98	0.190147
3225.49	0.18884
3225.01	0.185608
3224.53	0.187964
3224.05	0.191667
3223.57	0.189109
3223.08	0.184583
3222.6	0.186993
3222.12	0.193525
3221.64	0.194465
3221.15	0.189835
3220.67	0.187671
3220.19	0.189011
3219.71	0.187891
3219.23	0.184556
3218.74	0.185888
3218.26	0.192765
3217.78	0.19763
3217.3	0.195713
3216.81	0.189914
3216.33	0.184071
3215.85	0.179995
3215.37	0.180723
3214.88	0.188628
3214.4	0.199296
3213.92	0.203751
3213.44	0.198898
3212.96	0.191211
3212.47	0.188996
3211.99	0.194135
3211.51	0.200748
3211.03	0.200425
3210.54	0.190998
3210.06	0.180791
3209.58	0.180015
3209.1	0.188591
3208.61	0.196291
3208.13	0.195756
3207.65	0.190984
3207.17	0.189424
3206.69	0.19269
3206.2	0.197209
3205.72	0.198938
3205.24	0.19576
3204.76	0.189402
3204.27	0.186318
3203.79	0.190423
3203.31	0.195605
3202.83	0.19325
3202.35	0.185602
3201.86	0.182913
3201.38	0.187458
3200.9	0.191904
3200.42	0.192968
3199.93	0.195162
3199.45	0.199269
3198.97	0.199674
3198.49	0.195592
3198	0.193606
3197.52	0.195741
3197.04	0.196373
3196.56	0.193608
3196.08	0.191758
3195.59	0.190698
3195.11	0.186322
3194.63	0.182417
3194.15	0.187378
3193.66	0.197017
3193.18	0.19807
3192.7	0.190225
3192.22	0.187254
3191.74	0.192242
3191.25	0.191825
3190.77	0.181967
3190.29	0.178536
3189.81	0.190382
3189.32	0.202609
3188.84	0.199788
3188.36	0.190136
3187.88	0.189398
3187.39	0.195961
3186.91	0.198219
3186.43	0.194797
3185.95	0.192415
3185.47	0.191714
3184.98	0.189836
3184.5	0.189418
3184.02	0.192765
3183.54	0.194547
3183.05	0.190341
3182.57	0.185009
3182.09	0.183712
3181.61	0.183438
3181.12	0.181923
3180.64	0.18418
3180.16	0.191466
3179.68	0.195036
3179.2	0.190429
3178.71	0.186169
3178.23	0.189731
3177.75	0.195199
3177.27	0.195173
3176.78	0.192962
3176.3	0.192311
3175.82	0.188491
3175.34	0.180538
3174.86	0.179193
3174.37	0.189506
3173.89	0.198378
3173.41	0.192941
3172.93	0.180851
3172.44	0.177614
3171.96	0.183664
3171.48	0.188738
3171	0.190018
3170.51	0.191354
3170.03	0.192015
3169.55	0.18985
3169.07	0.188662
3168.59	0.190621
3168.1	0.189359
3167.62	0.182181
3167.14	0.179379
3166.66	0.188141
3166.17	0.197932
3165.69	0.195934
3165.21	0.189077
3164.73	0.191805
3164.25	0.200968
3163.76	0.200956
3163.28	0.190173
3162.8	0.183141
3162.32	0.186661
3161.83	0.191433
3161.35	0.189302
3160.87	0.184994
3160.39	0.185882
3159.9	0.191235
3159.42	0.195543
3158.94	0.196044
3158.46	0.193482
3157.98	0.190218
3157.49	0.188729
3157.01	0.189152
3156.53	0.189648
3156.05	0.190414
3155.56	0.19359
3155.08	0.197426
3154.6	0.196493
3154.12	0.190723
3153.63	0.187879
3153.15	0.191756
3152.67	0.195765
3152.19	0.193492
3151.71	0.188594
3151.22	0.187661
3150.74	0.19071
3150.26	0.194696
3149.78	0.198906
3149.29	0.201143
3148.81	0.196247
3148.33	0.18578
3147.85	0.181357
3147.37	0.189412
3146.88	0.199814
3146.4	0.198863
3145.92	0.188325
3145.44	0.181227
3144.95	0.183329
3144.47	0.189263
3143.99	0.193352
3143.51	0.194582
3143.02	0.192697
3142.54	0.188445
3142.06	0.186414
3141.58	0.189823
3141.1	0.193778
3140.61	0.191355
3140.13	0.185102
3139.65	0.183578
3139.17	0.188269
3138.68	0.191216
3138.2	0.187715
3137.72	0.183754
3137.24	0.186546
3136.75	0.193678
3136.27	0.196619
3135.79	0.193072
3135.31	0.189468
3134.83	0.191199
3134.34	0.195145
3133.86	0.195275
3133.38	0.191738
3132.9	0.189448
3132.41	0.18908
3131.93	0.186495
3131.45	0.182168
3130.97	0.182738
3130.49	0.189297
3130	0.193151
3129.52	0.189083
3129.04	0.185009
3128.56	0.189276
3128.07	0.19591
3127.59	0.194117
3127.11	0.186753
3126.63	0.186131
3126.14	0.19286
3125.66	0.195275
3125.18	0.189377
3124.7	0.185317
3124.22	0.189595
3123.73	0.195005
3123.25	0.193366
3122.77	0.188185
3122.29	0.18662
3121.8	0.18805
3121.32	0.188099
3120.84	0.187123
3120.36	0.187928
3119.88	0.189834
3119.39	0.190556
3118.91	0.190435
3118.43	0.190741
3117.95	0.190834
3117.46	0.190303
3116.98	0.190782
3116.5	0.193042
3116.02	0.195139
3115.53	0.195073
3115.05	0.192757
3114.57	0.189009
3114.09	0.185636
3113.61	0.185886
3113.12	0.190406
3112.64	0.194168
3112.16	0.192425
3111.68	0.188151
3111.19	0.187952
3110.71	0.191559
3110.23	0.192963
3109.75	0.190888
3109.26	0.190014
3108.78	0.191697
3108.3	0.192038
3107.82	0.190252
3107.34	0.190621
3106.85	0.19362
3106.37	0.193399
3105.89	0.187537
3105.41	0.182264
3104.92	0.183058
3104.44	0.187215
3103.96	0.189354
3103.48	0.188847
3103	0.188305
3102.51	0.188617
3102.03	0.189666
3101.55	0.192168
3101.07	0.195274
3100.58	0.195827
3100.1	0.193342
3099.62	0.192015
3099.14	0.194509
3098.65	0.197447
3098.17	0.1963
3097.69	0.192591
3097.21	0.191347
3096.73	0.193471
3096.24	0.19484
3095.76	0.192469
3095.28	0.188319
3094.8	0.185814
3094.31	0.185579
3093.83	0.186206
3093.35	0.187677
3092.87	0.191066
3092.39	0.194749
3091.9	0.194574
3091.42	0.189934
3090.94	0.186226
3090.46	0.188175
3089.97	0.192573
3089.49	0.192721
3089.01	0.188744
3088.53	0.187228
3088.04	0.19085
3087.56	0.194901
3087.08	0.195672
3086.6	0.195249
3086.12	0.195446
3085.63	0.193849
3085.15	0.18978
3084.67	0.188052
3084.19	0.191692
3083.7	0.19615
3083.22	0.195757
3082.74	0.192009
3082.26	0.190267
3081.77	0.191547
3081.29	0.19281
3080.81	0.192254
3080.33	0.19037
3079.85	0.187944
3079.36	0.1864
3078.88	0.18729
3078.4	0.188943
3077.92	0.187848
3077.43	0.18497
3076.95	0.185745
3076.47	0.191057
3075.99	0.194438
3075.51	0.192293
3075.02	0.189561
3074.54	0.190901
3074.06	0.192809
3073.58	0.19099
3073.09	0.188903
3072.61	0.19128
3072.13	0.194491
3071.65	0.192767
3071.16	0.189265
3070.68	0.191189
3070.2	0.196667
3069.72	0.196474
3069.24	0.189164
3068.75	0.184283
3068.27	0.187972
3067.79	0.194928
3067.31	0.197178
3066.82	0.194659
3066.34	0.192624
3065.86	0.192769
3065.38	0.192764
3064.9	0.191702
3064.41	0.191125
3063.93	0.191232
3063.45	0.190265
3062.97	0.188312
3062.48	0.188235
3062	0.191066
3061.52	0.193184
3061.04	0.19111
3060.55	0.187436
3060.07	0.18765
3059.59	0.191409
3059.11	0.192498
3058.63	0.188865
3058.14	0.186757
3057.66	0.191194
3057.18	0.197708
3056.7	0.198901
3056.21	0.194988
3055.73	0.191711
3055.25	0.190715
3054.77	0.189092
3054.28	0.186355
3053.8	0.184887
3053.32	0.184676
3052.84	0.184027
3052.36	0.184294
3051.87	0.187699
3051.39	0.191906
3050.91	0.192943
3050.43	0.192018
3049.94	0.192912
3049.46	0.194634
3048.98	0.193855
3048.5	0.192452
3048.02	0.194516
3047.53	0.197318
3047.05	0.194829
3046.57	0.188771
3046.09	0.186986
3045.6	0.190636
3045.12	0.193024
3044.64	0.191701
3044.16	0.191882
3043.67	0.195866
3043.19	0.198458
3042.71	0.196121
3042.23	0.191942
3041.75	0.189272
3041.26	0.187548
3040.78	0.186723
3040.3	0.188657
3039.82	0.191997
3039.33	0.192607
3038.85	0.190725
3038.37	0.190673
3037.89	0.192291
3037.41	0.190788
3036.92	0.186364
3036.44	0.185399
3035.96	0.190061
3035.48	0.19502
3034.99	0.196743
3034.51	0.197608
3034.03	0.198648
3033.55	0.196916
3033.06	0.192719
3032.58	0.191132
3032.1	0.193565
3031.62	0.195481
3031.14	0.195073
3030.65	0.19593
3030.17	0.198209
3029.69	0.196487
3029.21	0.190103
3028.72	0.186588
3028.24	0.190033
3027.76	0.194826
3027.28	0.195479
3026.79	0.194642
3026.31	0.195893
3025.83	0.196305
3025.35	0.193013
3024.87	0.190642
3024.38	0.194706
3023.9	0.202101
3023.42	0.204715
3022.94	0.200551
3022.45	0.195417
3021.97	0.194983
3021.49	0.199362
3021.01	0.20433
3020.53	0.205873
3020.04	0.203759
3019.56	0.201333
3019.08	0.201393
3018.6	0.203016
3018.11	0.203956
3017.63	0.203699
3017.15	0.201974
3016.67	0.198096
3016.18	0.19502
3015.7	0.198785
3015.22	0.208953
3014.74	0.214969
3014.26	0.209644
3013.77	0.201112
3013.29	0.20118
3012.81	0.208283
3012.33	0.212383
3011.84	0.211937
3011.36	0.213156
3010.88	0.215291
3010.4	0.211617
3009.92	0.204487
3009.43	0.204373
3008.95	0.212139
3008.47	0.217201
3007.99	0.215208
3007.5	0.213937
3007.02	0.218005
3006.54	0.221372
3006.06	0.220246
3005.57	0.22027
3005.09	0.224656
3004.61	0.227019
3004.13	0.223072
3003.65	0.219197
3003.16	0.22154
3002.68	0.226235
3002.2	0.226991
3001.72	0.225141
3001.23	0.225056
3000.75	0.226456
3000.27	0.22744
2999.79	0.229074
2999.3	0.232087
2998.82	0.234207
2998.34	0.234479
2997.86	0.234882
2997.38	0.235447
2996.89	0.234196
2996.41	0.23307
2995.93	0.236438
2995.45	0.242713
2994.96	0.245732
2994.48	0.245017
2994	0.245844
2993.52	0.248268
2993.04	0.247216
2992.55	0.244484
2992.07	0.247891
2991.59	0.256525
2991.11	0.25936
2990.62	0.253376
2990.14	0.249422
2989.66	0.25429
2989.18	0.260613
2988.69	0.260487
2988.21	0.257865
2987.73	0.258702
2987.25	0.260514
2986.77	0.259836
2986.28	0.259922
2985.8	0.262727
2985.32	0.263238
2984.84	0.259379
2984.35	0.257876
2983.87	0.262579
2983.39	0.26668
2982.91	0.264373
2982.43	0.260393
2981.94	0.259261
2981.46	0.256597
2980.98	0.24976
2980.5	0.246172
2980.01	0.25052
2979.53	0.2544
2979.05	0.249661
2978.57	0.243257
2978.08	0.245039
2977.6	0.250138
2977.12	0.247178
2976.64	0.238118
2976.16	0.234665
2975.67	0.238876
2975.19	0.242402
2974.71	0.242013
2974.23	0.242337
2973.74	0.243705
2973.26	0.240685
2972.78	0.233771
2972.3	0.230236
2971.81	0.231806
2971.33	0.232562
2970.85	0.230452
2970.37	0.230101
2969.89	0.232162
2969.4	0.230719
2968.92	0.224898
2968.44	0.222346
2967.96	0.226191
2967.47	0.22858
2966.99	0.223743
2966.51	0.218464
2966.03	0.221195
2965.55	0.228229
2965.06	0.229895
2964.58	0.225922
2964.1	0.224556
2963.62	0.227952
2963.13	0.229184
2962.65	0.224879
2962.17	0.221195
2961.69	0.223581
2961.2	0.227878
2960.72	0.227274
2960.24	0.222953
2959.76	0.221237
2959.28	0.223013
2958.79	0.223106
2958.31	0.219555
2957.83	0.216914
2957.35	0.218565
2956.86	0.221468
2956.38	0.221625
2955.9	0.220285
2955.42	0.220961
2954.94	0.223352
2954.45	0.224499
2953.97	0.224172
2953.49	0.224717
2953.01	0.22663
2952.52	0.227969
2952.04	0.227867
2951.56	0.227411
2951.08	0.227406
2950.59	0.228107
2950.11	0.230247
2949.63	0.233359
2949.15	0.234058
2948.67	0.229781
2948.18	0.224227
2947.7	0.223787
2947.22	0.229021
2946.74	0.234317
2946.25	0.236008
2945.77	0.23663
2945.29	0.239029
2944.81	0.24152
2944.32	0.242098
2943.84	0.243184
2943.36	0.2475
2942.88	0.252235
2942.4	0.251811
2941.91	0.246121
2941.43	0.241201
2940.95	0.241477
2940.47	0.245141
2939.98	0.247475
2939.5	0.246523
2939.02	0.244183
2938.54	0.243042
2938.06	0.243594
2937.57	0.244443
2937.09	0.244374
2936.61	0.243728
2936.13	0.243457
2935.64	0.243282
2935.16	0.241853
2934.68	0.238963
2934.2	0.236589
2933.71	0.236823
2933.23	0.239201
2932.75	0.240832
2932.27	0.239394
2931.79	0.235745
2931.3	0.233173
2930.82	0.233731
2930.34	0.235952
2929.86	0.236888
2929.37	0.235859
2928.89	0.235034
2928.41	0.235908
2927.93	0.237062
2927.45	0.236499
2926.96	0.234784
2926.48	0.233886
2926	0.233846
2925.52	0.233064
2925.03	0.231426
2924.55	0.230658
2924.07	0.231164
2923.59	0.231089
2923.1	0.229336
2922.62	0.227529
2922.14	0.227424
2921.66	0.228159
2921.18	0.227944
2920.69	0.227233
2920.21	0.227911
2919.73	0.229842
2919.25	0.230657
2918.76	0.229361
2918.28	0.227736
2917.8	0.227212
2917.32	0.226659
2916.83	0.224828
2916.35	0.223192
2915.87	0.22405
2915.39	0.226926
2914.91	0.22917
2914.42	0.229868
2913.94	0.230724
2913.46	0.232898
2912.98	0.235102
2912.49	0.23564
2912.01	0.234713
2911.53	0.233829
2911.05	0.233875
2910.57	0.234335
2910.08	0.234112
2909.6	0.232792
2909.12	0.231368
2908.64	0.231468
2908.15	0.233368
2907.67	0.235421
2907.19	0.236012
2906.71	0.23537
2906.22	0.23455
2905.74	0.233814
2905.26	0.233398
2904.78	0.234231
2904.3	0.235815
2903.81	0.235125
2903.33	0.230377
2902.85	0.224839
2902.37	0.223324
2901.88	0.225357
2901.4	0.226205
2900.92	0.223977
2900.44	0.221558
2899.96	0.220988
2899.47	0.220815
2898.99	0.22042
2898.51	0.221857
2898.03	0.225004
2897.54	0.225522
2897.06	0.221024
2896.58	0.215878
2896.1	0.215551
2895.61	0.218924
2895.13	0.220537
2894.65	0.218288
2894.17	0.215244
2893.69	0.214491
2893.2	0.21575
2892.72	0.216999
2892.24	0.216582
2891.76	0.214043
2891.27	0.210958
2890.79	0.210257
2890.31	0.213014
2889.83	0.216627
2889.34	0.217601
2888.86	0.215564
2888.38	0.212891
2887.9	0.211449
2887.42	0.211456
2886.93	0.212328
2886.45	0.212925
2885.97	0.211781
2885.49	0.20887
2885	0.206548
2884.52	0.206938
2884.04	0.209213
2883.56	0.210802
2883.08	0.210563
2882.59	0.209551
2882.11	0.208983
2881.63	0.208993
2881.15	0.209215
2880.66	0.209453
2880.18	0.209619
2879.7	0.209501
2879.22	0.208881
2878.73	0.208073
2878.25	0.208205
2877.77	0.210082
2877.29	0.212391
2876.81	0.212463
2876.32	0.209874
2875.84	0.207488
2875.36	0.207464
2874.88	0.20819
2874.39	0.207495
2873.91	0.206691
2873.43	0.208044
2872.95	0.210147
2872.47	0.209711
2871.98	0.206866
2871.5	0.204513
2871.02	0.203616
2870.54	0.203179
2870.05	0.203509
2869.57	0.20489
2869.09	0.204519
2868.61	0.200117
2868.12	0.195794
2867.64	0.19757
2867.16	0.203325
2866.68	0.204985
2866.2	0.20064
2865.71	0.197036
2865.23	0.198147
2864.75	0.199693
2864.27	0.197842
2863.78	0.195576
2863.3	0.196229
2862.82	0.197713
2862.34	0.1977
2861.85	0.198156
2861.37	0.199818
2860.89	0.19856
2860.41	0.19289
2859.93	0.189021
2859.44	0.191928
2858.96	0.19688
2858.48	0.19632
2858	0.191207
2857.51	0.188131
2857.03	0.188872
2856.55	0.19056
2856.07	0.192868
2855.59	0.197479
2855.1	0.202012
2854.62	0.201922
2854.14	0.198084
2853.66	0.195745
2853.17	0.19651
2852.69	0.197392
2852.21	0.197189
2851.73	0.197743
2851.24	0.198885
2850.76	0.198123
2850.28	0.195686
2849.8	0.194458
2849.32	0.194554
2848.83	0.193142
2848.35	0.190051
2847.87	0.18844
2847.39	0.189431
2846.9	0.191088
2846.42	0.192738
2845.94	0.195461
2845.46	0.198152
2844.98	0.19801
2844.49	0.195342
2844.01	0.193237
2843.53	0.192472
2843.05	0.191537
2842.56	0.191144
2842.08	0.193407
2841.6	0.196578
2841.12	0.196362
2840.63	0.193187
2840.15	0.192036
2839.67	0.193925
2839.19	0.194199
2838.71	0.19142
2838.22	0.19063
2837.74	0.194064
2837.26	0.195734
2836.78	0.19113
2836.29	0.186251
2835.81	0.188958
2835.33	0.196233
2834.85	0.198541
2834.36	0.194264
2833.88	0.190504
2833.4	0.190661
2832.92	0.190558
2832.44	0.188324
2831.95	0.188877
2831.47	0.194689
2830.99	0.199822
2830.51	0.198845
2830.02	0.195376
2829.54	0.195563
2829.06	0.198096
2828.58	0.197463
2828.1	0.193873
2827.61	0.192525
2827.13	0.19436
2826.65	0.194836
2826.17	0.191951
2825.68	0.189295
2825.2	0.189866
2824.72	0.192183
2824.24	0.194155
2823.75	0.195982
2823.27	0.197574
2822.79	0.197203
2822.31	0.194768
2821.83	0.19313
2821.34	0.193867
2820.86	0.194565
2820.38	0.1927
2819.9	0.189516
2819.41	0.188021
2818.93	0.189023
2818.45	0.191094
2817.97	0.192733
2817.49	0.193173
2817	0.192611
2816.52	0.192343
2816.04	0.193278
2815.56	0.194148
2815.07	0.193166
2814.59	0.191236
2814.11	0.190691
2813.63	0.191011
2813.14	0.189403
2812.66	0.186059
2812.18	0.184775
2811.7	0.187181
2811.22	0.190223
2810.73	0.191133
2810.25	0.191036
2809.77	0.191779
2809.29	0.192646
2808.8	0.192304
2808.32	0.191032
2807.84	0.189263
2807.36	0.186936
2806.87	0.18556
2806.39	0.18732
2805.91	0.190767
2805.43	0.191558
2804.95	0.189082
2804.46	0.187848
2803.98	0.190059
2803.5	0.191914
2803.02	0.190423
2802.53	0.188649
2802.05	0.190165
2801.57	0.192777
2801.09	0.192467
2800.61	0.190102
2800.12	0.18913
2799.64	0.189501
2799.16	0.188892
2798.68	0.187627
2798.19	0.18766
2797.71	0.188436
2797.23	0.188137
2796.75	0.187547
2796.26	0.188685
2795.78	0.190889
2795.3	0.191893
2794.82	0.191599
2794.34	0.191571
2793.85	0.191962
2793.37	0.191903
2792.89	0.191507
2792.41	0.190998
2791.92	0.189614
2791.44	0.187723
2790.96	0.187653
2790.48	0.189906
2790	0.191395
2789.51	0.190061
2789.03	0.188266
2788.55	0.188473
2788.07	0.188932
2787.58	0.18751
2787.1	0.186437
2786.62	0.188585
2786.14	0.191684
2785.65	0.191241
2785.17	0.187501
2784.69	0.184952
2784.21	0.186047
2783.73	0.18929
2783.24	0.192102
2782.76	0.192384
2782.28	0.188911
2781.8	0.183644
2781.31	0.181844
2780.83	0.185871
2780.35	0.191061
2779.87	0.191517
2779.38	0.188084
2778.9	0.186666
2778.42	0.189787
2777.94	0.194336
2777.46	0.196644
2776.97	0.19602
2776.49	0.193819
2776.01	0.19199
2775.53	0.191856
2775.04	0.19218
2774.56	0.190368
2774.08	0.187189
2773.6	0.187121
2773.12	0.191245
2772.63	0.194026
2772.15	0.191297
2771.67	0.187021
2771.19	0.187207
2770.7	0.190686
2770.22	0.191907
2769.74	0.189872
2769.26	0.188233
2768.77	0.188434
2768.29	0.189121
2767.81	0.190653
2767.33	0.193789
2766.85	0.195423
2766.36	0.192343
2765.88	0.188103
2765.4	0.1891
2764.92	0.194177
2764.43	0.195668
2763.95	0.191184
2763.47	0.187047
2762.99	0.188081
2762.51	0.191102
2762.02	0.191525
2761.54	0.190021
2761.06	0.189161
2760.58	0.188582
2760.09	0.187561
2759.61	0.188154
2759.13	0.191635
2758.65	0.194838
2758.16	0.194094
2757.68	0.190417
2757.2	0.187502
2756.72	0.186594
2756.24	0.186446
2755.75	0.186855
2755.27	0.188782
2754.79	0.19153
2754.31	0.19287
2753.82	0.192207
2753.34	0.19134
2752.86	0.191675
2752.38	0.192192
2751.89	0.190931
2751.41	0.187804
2750.93	0.185158
2750.45	0.185362
2749.97	0.188358
2749.48	0.191819
2749	0.193375
2748.52	0.192556
2748.04	0.190566
2747.55	0.188992
2747.07	0.18903
2746.59	0.190637
2746.11	0.192084
2745.63	0.191617
2745.14	0.189869
2744.66	0.18937
2744.18	0.190885
2743.7	0.192077
2743.21	0.190943
2742.73	0.188817
2742.25	0.188337
2741.77	0.189744
2741.28	0.191149
2740.8	0.191378
2740.32	0.190924
2739.84	0.190687
2739.36	0.191157
2738.87	0.192242
2738.39	0.192981
2737.91	0.192394
2737.43	0.191202
2736.94	0.191195
2736.46	0.192105
2735.98	0.191273
2735.5	0.188054
2735.02	0.185963
2734.53	0.187899
2734.05	0.191394
2733.57	0.19175
2733.09	0.1889
2732.6	0.187361
2732.12	0.189586
2731.64	0.192953
2731.16	0.193812
2730.67	0.191943
2730.19	0.18964
2729.71	0.188521
2729.23	0.188696
2728.75	0.189588
2728.26	0.190449
2727.78	0.190786
2727.3	0.19099
2726.82	0.191805
2726.33	0.192738
2725.85	0.192098
2725.37	0.189369
2724.89	0.186609
2724.4	0.186261
2723.92	0.18817
2723.44	0.189972
2722.96	0.190173
2722.48	0.18967
2721.99	0.189858
2721.51	0.190488
2721.03	0.190501
2720.55	0.190052
2720.06	0.190159
2719.58	0.190611
2719.1	0.190092
2718.62	0.188745
2718.14	0.188787
2717.65	0.191453
2717.17	0.194589
2716.69	0.194907
2716.21	0.192056
2715.72	0.188928
2715.24	0.188071
2714.76	0.189056
2714.28	0.189599
2713.79	0.188498
2713.31	0.186972
2712.83	0.186979
2712.35	0.18846
2711.87	0.189131
2711.38	0.187637
2710.9	0.185774
2710.42	0.18606
2709.94	0.188128
2709.45	0.18959
2708.97	0.189734
2708.49	0.189539
2708.01	0.188654
2707.52	0.186037
2707.04	0.18355
2706.56	0.184651
2706.08	0.188742
2705.6	0.191067
2705.11	0.189734
2704.63	0.188287
2704.15	0.18916
2703.67	0.189728
2703.18	0.187959
2702.7	0.186884
2702.22	0.189187
2701.74	0.191756
2701.26	0.190709
2700.77	0.188172
2700.29	0.188411
2699.81	0.190474
2699.33	0.190465
2698.84	0.188652
2698.36	0.18822
2697.88	0.18889
2697.4	0.187927
2696.91	0.186159
2696.43	0.186882
2695.95	0.189529
2695.47	0.190371
2694.99	0.189005
2694.5	0.188541
2694.02	0.189538
2693.54	0.189471
2693.06	0.18812
2692.57	0.187887
2692.09	0.188732
2691.61	0.188351
2691.13	0.187398
2690.65	0.188781
2690.16	0.19148
2689.68	0.191171
2689.2	0.187762
2688.72	0.186099
2688.23	0.188047
2687.75	0.190049
2687.27	0.189989
2686.79	0.190306
2686.3	0.192018
2685.82	0.191941
2685.34	0.188982
2684.86	0.187391
2684.38	0.189779
2683.89	0.19198
2683.41	0.189499
2682.93	0.184902
2682.45	0.183867
2681.96	0.18675
2681.48	0.188945
2681	0.187904
2680.52	0.185809
2680.03	0.185813
2679.55	0.188351
2679.07	0.191145
2678.59	0.191469
2678.11	0.189012
2677.62	0.186748
2677.14	0.18757
2676.66	0.190125
2676.18	0.190432
2675.69	0.187816
2675.21	0.185678
2674.73	0.186007
2674.25	0.187044
2673.77	0.187416
2673.28	0.188356
2672.8	0.18995
2672.32	0.189527
2671.84	0.186559
2671.35	0.185116
2670.87	0.187847
2670.39	0.191227
2669.91	0.190778
2669.42	0.188093
2668.94	0.18816
2668.46	0.191443
2667.98	0.193469
2667.5	0.191788
2667.01	0.18894
2666.53	0.188101
2666.05	0.189281
2665.57	0.190691
2665.08	0.191173
2664.6	0.190324
2664.12	0.18837
2663.64	0.186834
2663.16	0.187632
2662.67	0.190573
2662.19	0.193026
2661.71	0.192742
2661.23	0.190121
2660.74	0.187301
2660.26	0.185865
2659.78	0.186066
2659.3	0.187408
2658.81	0.189
2658.33	0.189811
2657.85	0.189392
2657.37	0.18831
2656.89	0.187513
2656.4	0.187325
2655.92	0.187442
2655.44	0.187742
2654.96	0.188483
2654.47	0.189636
2653.99	0.190627
2653.51	0.190906
2653.03	0.190276
2652.54	0.188657
2652.06	0.186393
2651.58	0.184964
2651.1	0.186053
2650.62	0.189035
2650.13	0.19088
2649.65	0.19005
2649.17	0.188872
2648.69	0.189881
2648.2	0.191448
2647.72	0.190249
2647.24	0.187107
2646.76	0.186301
2646.28	0.188845
2645.79	0.190885
2645.31	0.189867
2644.83	0.188264
2644.35	0.188964
2643.86	0.190524
2643.38	0.190234
2642.9	0.188885
2642.42	0.189043
2641.93	0.190549
2641.45	0.191166
2640.97	0.190414
2640.49	0.189643
2640.01	0.18929
2639.52	0.188882
2639.04	0.188933
2638.56	0.190042
2638.08	0.190829
2637.59	0.189613
2637.11	0.187585
2636.63	0.187527
2636.15	0.189398
2635.67	0.189995
2635.18	0.187759
2634.7	0.18529
2634.22	0.185797
2633.74	0.188632
2633.25	0.190085
2632.77	0.188235
2632.29	0.185544
2631.81	0.185739
2631.32	0.188848
2630.84	0.190999
2630.36	0.18959
2629.88	0.186866
2629.4	0.186437
2628.91	0.188221
2628.43	0.189375
2627.95	0.189044
2627.47	0.188875
2626.98	0.189263
2626.5	0.188868
2626.02	0.187923
2625.54	0.188161
2625.05	0.189067
2624.57	0.18834
2624.09	0.186655
2623.61	0.18739
2623.13	0.190279
2622.64	0.190616
2622.16	0.18695
2621.68	0.184268
2621.2	0.18635
2620.71	0.189767
2620.23	0.189633
2619.75	0.187325
2619.27	0.18725
2618.79	0.189242
2618.3	0.189682
2617.82	0.18799
2617.34	0.186768
2616.86	0.186918
2616.37	0.187238
2615.89	0.187887
2615.41	0.189858
2614.93	0.191803
2614.44	0.191413
2613.96	0.189267
2613.48	0.187738
2613	0.187143
2612.52	0.186379
2612.03	0.186057
2611.55	0.187177
2611.07	0.188029
2610.59	0.186649
2610.1	0.18507
2609.62	0.186513
2609.14	0.189527
2608.66	0.189713
2608.18	0.186933
2607.69	0.185428
2607.21	0.186624
2606.73	0.187583
2606.25	0.187102
2605.76	0.187794
2605.28	0.190342
2604.8	0.191104
2604.32	0.188127
2603.83	0.184929
2603.35	0.185074
2602.87	0.186951
2602.39	0.187472
2601.91	0.187317
2601.42	0.188594
2600.94	0.190009
2600.46	0.188886
2599.98	0.186126
2599.49	0.184973
2599.01	0.185611
2598.53	0.185425
2598.05	0.184289
2597.56	0.185079
2597.08	0.188199
2596.6	0.189882
2596.12	0.187848
2595.64	0.185153
2595.15	0.185745
2594.67	0.188582
2594.19	0.189532
2593.71	0.187725
2593.22	0.186448
2592.74	0.187708
2592.26	0.189387
2591.78	0.188927
2591.3	0.187229
2590.81	0.186778
2590.33	0.187766
2589.85	0.188232
2589.37	0.187418
2588.88	0.186869
2588.4	0.187902
2587.92	0.189556
2587.44	0.189743
2586.95	0.188011
2586.47	0.186373
2585.99	0.187188
2585.51	0.190081
2585.03	0.191601
2584.54	0.189197
2584.06	0.184887
2583.58	0.18329
2583.1	0.185834
2582.61	0.189055
2582.13	0.189428
2581.65	0.187573
2581.17	0.18621
2580.69	0.186174
2580.2	0.186583
2579.72	0.187181
2579.24	0.188085
2578.76	0.188364
2578.27	0.187275
2577.79	0.186024
2577.31	0.18615
2576.83	0.187145
2576.34	0.187684
2575.86	0.188014
2575.38	0.188898
2574.9	0.189479
2574.42	0.188807
2573.93	0.188246
2573.45	0.189514
2572.97	0.191505
2572.49	0.191943
2572	0.191074
2571.52	0.190572
2571.04	0.190058
2570.56	0.188303
2570.07	0.186616
2569.59	0.18699
2569.11	0.187928
2568.63	0.186679
2568.15	0.184876
2567.66	0.186533
2567.18	0.190718
2566.7	0.191887
2566.22	0.18877
2565.73	0.186598
2565.25	0.188412
2564.77	0.190407
2564.29	0.188913
2563.81	0.186731
2563.32	0.187891
2562.84	0.19056
2562.36	0.190395
2561.88	0.18805
2561.39	0.187814
2560.91	0.190499
2560.43	0.192582
2559.95	0.192028
2559.46	0.190527
2558.98	0.189817
2558.5	0.189469
2558.02	0.188884
2557.54	0.188632
2557.05	0.188962
2556.57	0.189091
2556.09	0.188731
2555.61	0.188774
2555.12	0.189838
2554.64	0.191222
2554.16	0.191745
2553.68	0.190883
2553.2	0.189027
2552.71	0.187262
2552.23	0.186769
2551.75	0.187794
2551.27	0.18932
2550.78	0.190133
2550.3	0.18994
2549.82	0.189165
2549.34	0.188262
2548.85	0.187609
2548.37	0.187557
2547.89	0.188158
2547.41	0.18906
2546.93	0.189783
2546.44	0.189906
2545.96	0.189225
2545.48	0.188203
2545	0.187762
2544.51	0.188046
2544.03	0.188131
2543.55	0.18773
2543.07	0.188087
2542.58	0.189856
2542.1	0.191372
2541.62	0.190837
2541.14	0.189103
2540.66	0.188149
2540.17	0.187921
2539.69	0.187263
2539.21	0.186829
2538.73	0.187883
2538.24	0.189085
2537.76	0.188246
2537.28	0.186775
2536.8	0.187972
2536.32	0.190883
2535.83	0.190826
2535.35	0.187154
2534.87	0.185076
2534.39	0.187535
2533.9	0.190515
2533.42	0.189696
2532.94	0.187202
2532.46	0.187188
2531.97	0.188752
2531.49	0.188571
2531.01	0.187507
2530.53	0.1886
2530.05	0.19044
2529.56	0.188955
2529.08	0.18515
2528.6	0.184618
2528.12	0.188568
2527.63	0.191567
2527.15	0.190032
2526.67	0.187457
2526.19	0.188076
2525.71	0.190145
2525.22	0.18964
2524.74	0.186954
2524.26	0.18544
2523.78	0.185718
2523.29	0.186035
2522.81	0.186582
2522.33	0.188818
2521.85	0.19123
2521.36	0.190437
2520.88	0.18686
2520.4	0.184898
2519.92	0.186256
2519.44	0.187489
2518.95	0.185947
2518.47	0.184319
2517.99	0.186092
2517.51	0.189588
2517.02	0.190423
2516.54	0.188297
2516.06	0.187073
2515.58	0.188373
2515.09	0.189326
2514.61	0.187598
2514.13	0.185259
2513.65	0.18542
2513.17	0.187556
2512.68	0.188599
2512.2	0.187569
2511.72	0.186569
2511.24	0.187324
2510.75	0.188887
2510.27	0.189346
2509.79	0.188443
2509.31	0.187423
2508.83	0.187167
2508.34	0.187589
2507.86	0.188455
2507.38	0.189542
2506.9	0.189919
2506.41	0.188507
2505.93	0.186051
2505.45	0.185172
2504.97	0.18709
2504.48	0.189521
2504	0.189516
2503.52	0.187619
2503.04	0.186806
2502.56	0.187743
2502.07	0.188259
2501.59	0.187571
2501.11	0.187571
2500.63	0.188725
2500.14	0.188442
2499.66	0.185856
2499.18	0.184646
2498.7	0.187618
2498.22	0.191423
2497.73	0.190877
2497.25	0.186894
2496.77	0.185032
2496.29	0.187149
2495.8	0.189455
2495.32	0.188995
2494.84	0.18751
2494.36	0.187415
2493.87	0.188168
2493.39	0.188285
2492.91	0.187791
2492.43	0.18702
2491.95	0.185747
2491.46	0.184892
2490.98	0.186262
2490.5	0.189182
2490.02	0.19027
2489.53	0.188253
2489.05	0.18598
2488.57	0.186013
2488.09	0.187157
2487.6	0.18746
2487.12	0.187672
2486.64	0.188967
2486.16	0.189976
2485.68	0.189279
2485.19	0.188457
2484.71	0.189296
2484.23	0.190023
2483.75	0.188156
2483.26	0.185553
2482.78	0.186253
2482.3	0.189886
2481.82	0.191655
2481.34	0.189575
2480.85	0.187153
2480.37	0.187718
2479.89	0.189811
2479.41	0.190432
2478.92	0.189828
2478.44	0.190175
2477.96	0.191485
2477.48	0.191829
2476.99	0.190689
2476.51	0.189421
2476.03	0.188739
2475.55	0.188057
2475.07	0.187398
2474.58	0.187785
2474.1	0.189218
2473.62	0.190171
2473.14	0.189801
2472.65	0.189173
2472.17	0.189417
2471.69	0.189985
2471.21	0.189862
2470.73	0.189298
2470.24	0.18911
2469.76	0.189125
2469.28	0.188708
2468.8	0.188232
2468.31	0.188527
2467.83	0.18918
2467.35	0.188814
2466.87	0.187113
2466.38	0.185408
2465.9	0.185089
2465.42	0.186369
2464.94	0.188449
2464.46	0.190116
2463.97	0.190408
2463.49	0.18947
2463.01	0.188642
2462.53	0.188893
2462.04	0.18962
2461.56	0.189788
2461.08	0.189401
2460.6	0.188864
2460.11	0.187934
2459.63	0.186817
2459.15	0.187042
2458.67	0.189204
2458.19	0.190987
2457.7	0.19001
2457.22	0.187724
2456.74	0.187456
2456.26	0.189302
2455.77	0.190277
2455.29	0.189422
2454.81	0.188992
2454.33	0.189861
2453.85	0.189732
2453.36	0.187243
2452.88	0.184638
2452.4	0.184401
2451.92	0.186128
2451.43	0.188241
2450.95	0.190059
2450.47	0.190742
2449.99	0.188965
2449.5	0.18565
2449.02	0.184343
2448.54	0.186713
2448.06	0.189874
2447.58	0.190313
2447.09	0.188602
2446.61	0.187698
2446.13	0.188351
2445.65	0.188769
2445.16	0.187997
2444.68	0.187301
2444.2	0.188192
2443.72	0.190298
2443.24	0.191482
2442.75	0.190187
2442.27	0.187748
2441.79	0.187412
2441.31	0.189806
2440.82	0.191231
2440.34	0.188786
2439.86	0.1853
2439.38	0.185494
2438.89	0.188617
2438.41	0.189697
2437.93	0.187526
2437.45	0.186001
2436.97	0.187044
2436.48	0.188052
2436	0.187532
2435.52	0.18769
2435.04	0.189258
2434.55	0.189366
2434.07	0.187158
2433.59	0.186245
2433.11	0.188332
2432.62	0.189625
2432.14	0.187203
2431.66	0.184235
2431.18	0.184634
2430.7	0.186955
2430.21	0.187843
2429.73	0.187771
2429.25	0.188674
2428.77	0.189368
2428.28	0.188118
2427.8	0.186901
2427.32	0.188272
2426.84	0.190528
2426.36	0.190421
2425.87	0.188484
2425.39	0.187414
2424.91	0.187388
2424.43	0.187133
2423.94	0.187462
2423.46	0.189426
2422.98	0.1908
2422.5	0.188778
2422.01	0.184958
2421.53	0.183532
2421.05	0.185528
2420.57	0.188415
2420.09	0.190207
2419.6	0.190774
2419.12	0.190101
2418.64	0.188302
2418.16	0.186597
2417.67	0.185988
2417.19	0.185986
2416.71	0.186193
2416.23	0.187232
2415.75	0.188586
2415.26	0.188189
2414.78	0.186117
2414.3	0.185518
2413.82	0.187582
2413.33	0.189079
2412.85	0.187693
2412.37	0.186156
2411.89	0.18762
2411.4	0.1903
2410.92	0.190673
2410.44	0.189199
2409.96	0.188747
2409.48	0.189781
2408.99	0.190791
2408.51	0.191406
2408.03	0.191689
2407.55	0.190658
2407.06	0.188563
2406.58	0.187919
2406.1	0.189442
2405.62	0.190099
2405.13	0.18838
2404.65	0.187702
2404.17	0.19058
2403.69	0.193459
2403.21	0.192138
2402.72	0.188886
2402.24	0.188427
2401.76	0.190153
2401.28	0.190113
2400.79	0.188496
2400.31	0.188775
2399.83	0.190798
2399.35	0.190839
2398.87	0.188298
2398.38	0.186579
2397.9	0.187263
2397.42	0.188245
2396.94	0.188166
2396.45	0.188353
2395.97	0.189563
2395.49	0.190425
2395.01	0.189979
2394.52	0.189004
2394.04	0.18845
2393.56	0.188627
2393.08	0.189673
2392.6	0.190933
2392.11	0.190682
2391.63	0.188609
2391.15	0.187256
2390.67	0.188691
2390.18	0.191166
2389.7	0.19156
2389.22	0.19006
2388.74	0.189412
2388.26	0.190563
2387.77	0.191817
2387.29	0.191878
2386.81	0.191255
2386.33	0.190838
2385.84	0.19083
2385.36	0.191052
2384.88	0.191358
2384.4	0.192038
2383.91	0.193714
2383.43	0.195696
2382.95	0.1953
2382.47	0.191508
2381.99	0.188432
2381.5	0.190798
2381.02	0.196414
2380.54	0.198374
2380.06	0.195876
2379.57	0.195455
2379.09	0.199131
2378.61	0.200239
2378.13	0.195802
2377.64	0.19331
2377.16	0.198692
2376.68	0.204152
2376.2	0.200749
2375.72	0.194247
2375.23	0.195983
2374.75	0.205052
2374.27	0.210042
2373.79	0.209183
2373.3	0.209752
2372.82	0.21211
2372.34	0.209379
2371.86	0.202946
2371.38	0.201869
2370.89	0.207185
2370.41	0.208995
2369.93	0.204113
2369.45	0.201305
2368.96	0.206879
2368.48	0.214916
2368	0.217128
2367.52	0.212319
2367.03	0.204197
2366.55	0.198944
2366.07	0.201945
2365.59	0.212321
2365.11	0.220973
2364.62	0.221801
2364.14	0.219248
2363.66	0.217103
2363.18	0.214599
2362.69	0.21601
2362.21	0.226925
2361.73	0.236229
2361.25	0.223981
2360.77	0.199914
2360.28	0.194408
2359.8	0.215523
2359.32	0.231605
2358.84	0.22092
2358.35	0.206525
2357.87	0.211092
2357.39	0.221594
2356.91	0.216393
2356.42	0.20561
2355.94	0.208178
2355.46	0.218499
2354.98	0.220072
2354.5	0.214665
2354.01	0.213675
2353.53	0.216727
2353.05	0.216519
2352.57	0.213757
2352.08	0.211362
2351.6	0.207788
2351.12	0.203488
2350.64	0.203248
2350.15	0.206058
2349.67	0.203565
2349.19	0.196949
2348.71	0.195759
2348.23	0.20499
2347.74	0.215233
2347.26	0.212738
2346.78	0.202995
2346.3	0.202226
2345.81	0.213166
2345.33	0.217538
2344.85	0.211952
2344.37	0.211665
2343.89	0.219972
2343.4	0.220062
2342.92	0.209975
2342.44	0.207625
2341.96	0.220203
2341.47	0.22951
2340.99	0.22385
2340.51	0.214986
2340.03	0.215223
2339.54	0.217481
2339.06	0.212006
2338.58	0.204887
2338.1	0.20604
2337.62	0.21054
2337.13	0.208033
2336.65	0.201364
2336.17	0.202201
2335.69	0.210772
2335.2	0.214653
2334.72	0.209882
2334.24	0.203876
2333.76	0.203784
2333.28	0.206565
2332.79	0.20649
2332.31	0.203813
2331.83	0.202511
2331.35	0.202713
2330.86	0.202636
2330.38	0.203721
2329.9	0.207775
2329.42	0.211418
2328.93	0.210063
2328.45	0.205357
2327.97	0.204286
2327.49	0.207885
2327.01	0.209908
2326.52	0.207438
2326.04	0.205984
2325.56	0.208795
2325.08	0.210637
2324.59	0.206496
2324.11	0.202194
2323.63	0.203931
2323.15	0.208061
2322.66	0.206214
2322.18	0.201359
2321.7	0.201452
2321.22	0.205653
2320.74	0.205358
2320.25	0.199623
2319.77	0.196493
2319.29	0.198229
2318.81	0.199903
2318.32	0.198603
2317.84	0.198886
2317.36	0.203077
2316.88	0.206482
2316.4	0.204217
2315.91	0.200374
2315.43	0.198372
2314.95	0.196902
2314.47	0.194809
2313.98	0.194645
2313.5	0.198022
2313.02	0.202107
2312.54	0.200812
2312.05	0.195932
2311.57	0.192511
2311.09	0.192284
2310.61	0.194556
2310.13	0.196849
2309.64	0.198564
2309.16	0.19958
2308.68	0.198681
2308.2	0.196705
2307.71	0.195934
2307.23	0.196485
2306.75	0.196845
2306.27	0.195799
2305.79	0.194306
2305.3	0.193119
2304.82	0.19169
2304.34	0.190046
2303.86	0.190099
2303.37	0.193443
2302.89	0.198735
2302.41	0.200668
2301.93	0.196367
2301.44	0.190871
2300.96	0.189955
2300.48	0.193472
2300	0.195517
2299.52	0.193515
2299.03	0.191518
2298.55	0.192265
2298.07	0.192877
2297.59	0.190422
2297.1	0.187971
2296.62	0.189191
2296.14	0.191981
2295.66	0.191609
2295.17	0.188973
2294.69	0.189156
2294.21	0.192698
2293.73	0.194874
2293.25	0.192863
2292.76	0.190135
2292.28	0.190043
2291.8	0.191037
2291.32	0.190204
2290.83	0.188204
2290.35	0.18788
2289.87	0.189511
2289.39	0.190506
2288.91	0.189051
2288.42	0.186842
2287.94	0.187007
2287.46	0.190109
2286.98	0.192999
2286.49	0.192526
2286.01	0.189696
2285.53	0.188237
2285.05	0.189435
2284.56	0.190697
2284.08	0.189833
2283.6	0.188131
2283.12	0.187806
2282.64	0.188667
2282.15	0.189267
2281.67	0.189382
2281.19	0.189517
2280.71	0.18945
2280.22	0.189003
2279.74	0.188893
2279.26	0.189322
2278.78	0.189188
2278.29	0.188054
2277.81	0.187218
2277.33	0.187584
2276.85	0.188289
2276.37	0.188623
2275.88	0.18915
2275.4	0.18993
2274.92	0.190038
2274.44	0.189757
2273.95	0.190558
2273.47	0.191857
2272.99	0.19122
2272.51	0.188802
2272.03	0.187903
2271.54	0.189473
2271.06	0.190212
2270.58	0.188504
2270.1	0.187277
2269.61	0.188471
2269.13	0.189295
2268.65	0.187742
2268.17	0.186837
2267.68	0.189092
2267.2	0.191165
2266.72	0.189375
2266.24	0.186522
2265.76	0.187403
2265.27	0.190605
2264.79	0.191109
2264.31	0.188704
2263.83	0.18765
2263.34	0.189235
2262.86	0.190571
2262.38	0.190235
2261.9	0.189833
2261.42	0.189947
2260.93	0.189246
2260.45	0.187751
2259.97	0.187018
2259.49	0.187088
2259	0.186671
2258.52	0.185964
2258.04	0.186092
2257.56	0.186539
2257.07	0.186354
2256.59	0.186818
2256.11	0.189328
2255.63	0.191774
2255.15	0.190871
2254.66	0.187475
2254.18	0.185699
2253.7	0.18685
2253.22	0.18822
2252.73	0.187859
2252.25	0.1871
2251.77	0.187721
2251.29	0.189331
2250.8	0.190252
2250.32	0.189389
2249.84	0.187038
2249.36	0.18502
2248.88	0.185422
2248.39	0.187838
2247.91	0.189288
2247.43	0.188075
2246.95	0.185991
2246.46	0.185346
2245.98	0.185778
2245.5	0.186007
2245.02	0.186425
2244.54	0.187555
2244.05	0.188107
2243.57	0.187096
2243.09	0.186012
2242.61	0.186443
2242.12	0.187446
2241.64	0.187524
2241.16	0.187128
2240.68	0.187007
2240.19	0.18642
2239.71	0.185246
2239.23	0.185228
2238.75	0.18673
2238.27	0.187224
2237.78	0.185602
2237.3	0.184646
2236.82	0.186172
2236.34	0.187398
2235.85	0.185946
2235.37	0.184614
2234.89	0.186536
2234.41	0.189121
2233.93	0.188296
2233.44	0.185829
2232.96	0.186251
2232.48	0.188731
2232	0.18867
2231.51	0.186293
2231.03	0.186432
2230.55	0.189734
2230.07	0.191019
2229.58	0.18798
2229.1	0.185137
2228.62	0.186399
2228.14	0.189205
2227.66	0.189278
2227.17	0.187397
2226.69	0.187178
2226.21	0.188836
2225.73	0.189187
2225.24	0.186942
2224.76	0.184612
2224.28	0.184847
2223.8	0.187041
2223.31	0.188473
2222.83	0.187756
2222.35	0.186176
2221.87	0.185751
2221.39	0.186719
2220.9	0.187711
2220.42	0.187824
2219.94	0.187485
2219.46	0.187365
2218.97	0.187632
2218.49	0.188405
2218.01	0.189588
2217.53	0.190132
2217.05	0.188999
2216.56	0.187078
2216.08	0.186412
2215.6	0.187236
2215.12	0.187881
2214.63	0.187782
2214.15	0.188181
2213.67	0.189256
2213.19	0.189289
2212.7	0.187771
2212.22	0.186707
2211.74	0.187331
2211.26	0.188082
2210.78	0.187493
2210.29	0.186594
2209.81	0.186688
2209.33	0.187162
2208.85	0.187339
2208.36	0.188118
2207.88	0.189718
2207.4	0.190167
2206.92	0.188393
2206.44	0.186707
2205.95	0.187473
2205.47	0.189279
2204.99	0.189174
2204.51	0.187199
2204.02	0.18594
2203.54	0.186499
2203.06	0.18762
2202.58	0.188139
2202.09	0.188075
2201.61	0.187695
2201.13	0.187327
2200.65	0.187683
2200.17	0.188891
2199.68	0.189814
2199.2	0.189547
2198.72	0.188805
2198.24	0.188552
2197.75	0.188317
2197.27	0.187269
2196.79	0.186013
2196.31	0.18581
2195.82	0.186711
2195.34	0.187763
2194.86	0.188467
2194.38	0.188977
2193.9	0.189364
2193.41	0.189488
2192.93	0.189181
2192.45	0.18821
2191.97	0.186767
2191.48	0.185995
2191	0.186799
2190.52	0.188183
2190.04	0.188395
2189.56	0.187646
2189.07	0.187718
2188.59	0.188768
2188.11	0.188968
2187.63	0.187876
2187.14	0.187469
2186.66	0.188656
2186.18	0.18947
2185.7	0.18837
2185.21	0.186924
2184.73	0.187173
2184.25	0.188326
2183.77	0.188364
2183.29	0.187403
2182.8	0.187022
2182.32	0.187407
2181.84	0.187433
2181.36	0.186986
2180.87	0.187086
2180.39	0.187933
2179.91	0.188646
2179.43	0.188874
2178.95	0.189139
2178.46	0.189538
2177.98	0.189487
2177.5	0.188968
2177.02	0.18882
2176.53	0.189338
2176.05	0.189508
2175.57	0.188344
2175.09	0.186443
2174.6	0.185472
2174.12	0.186153
2173.64	0.187444
2173.16	0.188031
2172.68	0.187851
2172.19	0.187555
2171.71	0.187175
2171.23	0.186413
2170.75	0.185858
2170.26	0.186479
2169.78	0.187884
2169.3	0.188619
2168.82	0.188311
2168.33	0.187935
2167.85	0.187786
2167.37	0.187078
2166.89	0.185977
2166.41	0.185891
2165.92	0.187013
2165.44	0.187802
2164.96	0.187729
2164.48	0.188117
2163.99	0.189172
2163.51	0.188968
2163.03	0.186981
2162.55	0.185769
2162.07	0.187046
2161.58	0.188706
2161.1	0.18839
2160.62	0.187301
2160.14	0.187513
2159.65	0.187981
2159.17	0.186729
2158.69	0.185038
2158.21	0.185636
2157.72	0.188021
2157.24	0.189236
2156.76	0.188452
2156.28	0.187393
2155.8	0.186873
2155.31	0.186247
2154.83	0.18578
2154.35	0.186446
2153.87	0.187628
2153.38	0.187736
2152.9	0.186797
2152.42	0.18608
2151.94	0.185806
2151.46	0.185537
2150.97	0.185865
2150.49	0.187246
2150.01	0.188263
2149.53	0.18763
2149.04	0.186722
2148.56	0.187319
2148.08	0.188344
2147.6	0.187915
2147.11	0.187135
2146.63	0.188167
2146.15	0.189801
2145.67	0.189133
2145.19	0.186816
2144.7	0.186312
2144.22	0.188098
2143.74	0.189097
2143.26	0.188061
2142.77	0.187252
2142.29	0.187805
2141.81	0.187646
2141.33	0.185573
2140.84	0.183883
2140.36	0.184837
2139.88	0.187229
2139.4	0.188369
2138.92	0.187538
2138.43	0.18592
2137.95	0.184711
2137.47	0.184655
2136.99	0.186083
2136.5	0.18824
2136.02	0.189492
2135.54	0.189001
2135.06	0.187582
2134.58	0.186546
2134.09	0.186511
2133.61	0.187325
2133.13	0.188284
2132.65	0.188596
2132.16	0.188301
2131.68	0.188222
2131.2	0.188431
2130.72	0.187969
2130.23	0.186955
2129.75	0.187199
2129.27	0.189166
2128.79	0.190243
2128.31	0.188374
2127.82	0.185672
2127.34	0.185464
2126.86	0.187195
2126.38	0.187609
2125.89	0.186197
2125.41	0.185769
2124.93	0.187552
2124.45	0.189312
2123.97	0.189107
2123.48	0.187894
2123	0.187233
2122.52	0.18698
2122.04	0.18657
2121.55	0.186451
2121.07	0.186881
2120.59	0.186979
2120.11	0.186301
2119.62	0.185993
2119.14	0.187095
2118.66	0.188748
2118.18	0.189334
2117.7	0.188678
2117.21	0.187943
2116.73	0.187783
2116.25	0.187693
2115.77	0.187175
2115.28	0.186614
2114.8	0.186567
2114.32	0.186747
2113.84	0.186515
2113.35	0.186172
2112.87	0.186766
2112.39	0.188316
2111.91	0.189378
2111.43	0.189064
2110.94	0.188291
2110.46	0.187963
2109.98	0.187287
2109.5	0.185595
2109.01	0.184563
2108.53	0.186157
2108.05	0.189228
2107.57	0.190781
2107.09	0.190113
2106.6	0.189008
2106.12	0.18826
2105.64	0.18719
2105.16	0.186401
2104.67	0.187404
2104.19	0.189313
2103.71	0.189523
2103.23	0.188159
2102.74	0.187993
2102.26	0.189181
2101.78	0.188641
2101.3	0.185873
2100.82	0.184725
2100.33	0.186993
2099.85	0.189024
2099.37	0.187664
2098.89	0.185442
2098.4	0.186103
2097.92	0.188495
2097.44	0.189031
2096.96	0.187586
2096.48	0.186778
2095.99	0.18739
2095.51	0.188258
2095.03	0.188999
2094.55	0.189531
2094.06	0.188592
2093.58	0.185965
2093.1	0.184336
2092.62	0.185685
2092.13	0.187805
2091.65	0.187656
2091.17	0.186276
2090.69	0.186616
2090.21	0.188332
2089.72	0.188805
2089.24	0.187919
2088.76	0.187659
2088.28	0.187971
2087.79	0.187271
2087.31	0.186282
2086.83	0.18719
2086.35	0.189302
2085.86	0.18962
2085.38	0.187808
2084.9	0.186629
2084.42	0.187182
2083.94	0.187446
2083.45	0.186207
2082.97	0.184989
2082.49	0.185186
2082.01	0.18617
2081.52	0.187121
2081.04	0.188236
2080.56	0.189268
2080.08	0.189264
2079.6	0.188454
2079.11	0.18823
2078.63	0.188707
2078.15	0.188517
2077.67	0.187418
2077.18	0.18683
2076.7	0.187324
2076.22	0.187816
2075.74	0.187803
2075.25	0.188141
2074.77	0.188967
2074.29	0.189068
2073.81	0.188128
2073.33	0.18758
2072.84	0.188283
2072.36	0.189126
2071.88	0.188859
2071.4	0.187745
2070.91	0.186691
2070.43	0.18624
2069.95	0.186916
2069.47	0.188896
2068.99	0.1908
2068.5	0.190597
2068.02	0.188574
2067.54	0.187539
2067.06	0.189029
2066.57	0.191033
2066.09	0.190835
2065.61	0.188698
2065.13	0.187212
2064.64	0.187734
2064.16	0.188988
2063.68	0.189107
2063.2	0.187913
2062.72	0.186945
2062.23	0.187575
2061.75	0.189283
2061.27	0.190115
2060.79	0.189183
2060.3	0.188004
2059.82	0.188283
2059.34	0.189222
2058.86	0.188821
2058.37	0.187337
2057.89	0.187056
2057.41	0.188507
2056.93	0.189467
2056.45	0.188656
2055.96	0.187876
2055.48	0.188877
2055	0.190289
2054.52	0.189963
2054.03	0.188603
2053.55	0.188567
2053.07	0.190016
2052.59	0.190848
2052.11	0.190152
2051.62	0.189289
2051.14	0.18949
2050.66	0.190351
2050.18	0.191108
2049.69	0.191637
2049.21	0.191837
2048.73	0.191596
2048.25	0.191574
2047.76	0.192456
2047.28	0.193268
2046.8	0.192345
2046.32	0.190306
2045.84	0.189876
2045.35	0.191873
2044.87	0.193665
2044.39	0.193074
2043.91	0.191729
2043.42	0.192307
2042.94	0.19407
2042.46	0.193939
2041.98	0.191334
2041.5	0.189184
2041.01	0.189817
2040.53	0.192165
2040.05	0.193731
2039.57	0.19363
2039.08	0.192704
2038.6	0.191926
2038.12	0.191729
2037.64	0.19206
2037.15	0.192447
2036.67	0.192429
2036.19	0.19214
2035.71	0.192027
2035.23	0.192082
2034.74	0.19205
2034.26	0.192144
2033.78	0.192574
2033.3	0.192671
2032.81	0.191811
2032.33	0.191036
2031.85	0.192056
2031.37	0.194404
2030.88	0.19544
2030.4	0.193864
2029.92	0.191602
2029.44	0.190993
2028.96	0.191815
2028.47	0.192492
2027.99	0.192827
2027.51	0.193689
2027.03	0.194738
2026.54	0.194567
2026.06	0.19315
2025.58	0.192232
2025.1	0.192788
2024.62	0.193649
2024.13	0.193297
2023.65	0.191968
2023.17	0.190995
2022.69	0.190873
2022.2	0.191052
2021.72	0.191282
2021.24	0.19197
2020.76	0.193018
2020.27	0.193414
2019.79	0.192639
2019.31	0.191683
2018.83	0.191803
2018.35	0.192768
2017.86	0.19343
2017.38	0.19368
2016.9	0.194359
2016.42	0.195164
2015.93	0.194433
2015.45	0.191876
2014.97	0.189743
2014.49	0.189951
2014.01	0.191492
2013.52	0.192059
2013.04	0.191398
2012.56	0.191178
2012.08	0.191959
2011.59	0.192394
2011.11	0.191612
2010.63	0.190567
2010.15	0.190394
2009.66	0.190905
2009.18	0.191302
2008.7	0.191274
2008.22	0.190786
2007.74	0.189805
2007.25	0.188884
2006.77	0.189064
2006.29	0.190467
2005.81	0.19169
2005.32	0.191323
2004.84	0.189732
2004.36	0.188683
2003.88	0.189457
2003.39	0.191625
2002.91	0.193464
2002.43	0.19347
2001.95	0.191724
2001.47	0.189913
2000.98	0.189564
2000.5	0.190422
2000.02	0.191081
1999.54	0.190986
1999.05	0.190982
1998.57	0.191651
1998.09	0.192143
1997.61	0.191377
1997.13	0.189867
1996.64	0.189275
1996.16	0.190289
1995.68	0.191633
1995.2	0.191707
1994.71	0.190753
1994.23	0.190498
1993.75	0.191661
1993.27	0.192781
1992.78	0.192336
1992.3	0.191013
1991.82	0.190821
1991.34	0.191865
1990.86	0.192004
1990.37	0.190438
1989.89	0.189039
1989.41	0.189486
1988.93	0.190773
1988.44	0.191009
1987.96	0.190456
1987.48	0.190821
1987	0.192038
1986.52	0.192227
1986.03	0.190768
1985.55	0.189415
1985.07	0.189779
1984.59	0.191194
1984.1	0.191981
1983.62	0.191558
1983.14	0.19043
1982.66	0.189038
1982.17	0.18778
1981.69	0.187536
1981.21	0.188843
1980.73	0.190633
1980.25	0.190978
1979.76	0.189566
1979.28	0.188486
1978.8	0.189645
1978.32	0.192087
1977.83	0.193017
1977.35	0.191526
1976.87	0.189798
1976.39	0.189953
1975.9	0.191166
1975.42	0.191133
1974.94	0.189577
1974.46	0.188462
1973.98	0.188925
1973.49	0.18978
1973.01	0.189527
1972.53	0.188523
1972.05	0.188292
1971.56	0.189419
1971.08	0.190872
1970.6	0.191287
1970.12	0.190508
1969.64	0.189774
1969.15	0.190269
1968.67	0.191506
1968.19	0.191872
1967.71	0.190854
1967.22	0.189747
1966.74	0.189578
1966.26	0.18961
1965.78	0.18919
1965.29	0.189274
1964.81	0.190494
1964.33	0.191419
1963.85	0.190817
1963.37	0.190139
1962.88	0.191203
1962.4	0.192669
1961.92	0.191968
1961.44	0.1898
1960.95	0.189231
1960.47	0.190593
1959.99	0.191198
1959.51	0.190213
1959.03	0.189771
1958.54	0.190544
1958.06	0.190353
1957.58	0.188524
1957.1	0.187683
1956.61	0.189244
1956.13	0.190745
1955.65	0.190028
1955.17	0.188737
1954.68	0.189114
1954.2	0.190156
1953.72	0.189943
1953.24	0.189252
1952.76	0.189693
1952.27	0.190469
1951.79	0.189976
1951.31	0.188947
1950.83	0.188988
1950.34	0.189468
1949.86	0.18872
1949.38	0.187234
1948.9	0.186874
1948.41	0.187882
1947.93	0.189045
1947.45	0.190004
1946.97	0.191003
1946.49	0.191231
1946	0.189925
1945.52	0.188401
1945.04	0.188446
1944.56	0.189457
1944.07	0.189424
1943.59	0.18826
1943.11	0.1877
1942.63	0.188512
1942.15	0.18945
1941.66	0.189334
1941.18	0.188678
1940.7	0.188316
1940.22	0.188525
1939.73	0.189238
1939.25	0.189878
1938.77	0.189551
1938.29	0.188235
1937.8	0.187254
1937.32	0.187628
1936.84	0.188749
1936.36	0.189555
1935.88	0.189755
1935.39	0.18922
1934.91	0.187724
1934.43	0.186315
1933.95	0.187023
1933.46	0.189652
1932.98	0.191073
1932.5	0.189477
1932.02	0.187289
1931.54	0.187524
1931.05	0.189206
1930.57	0.189494
1930.09	0.188427
1929.61	0.188286
1929.12	0.189318
1928.64	0.189659
1928.16	0.188928
1927.68	0.188522
1927.19	0.188589
1926.71	0.187997
1926.23	0.187203
1925.75	0.187784
1925.27	0.189022
1924.78	0.188431
1924.3	0.186217
1923.82	0.185575
1923.34	0.187608
1922.85	0.189193
1922.37	0.187707
1921.89	0.185456
1921.41	0.185502
1920.92	0.186763
1920.44	0.186615
1919.96	0.185467
1919.48	0.185953
1919	0.188336
1918.51	0.190094
1918.03	0.189247
1917.55	0.187313
1917.07	0.18703
1916.58	0.188047
1916.1	0.188506
1915.62	0.18776
1915.14	0.186685
1914.66	0.186245
1914.17	0.18642
1913.69	0.186612
1913.21	0.18645
1912.73	0.18616
1912.24	0.186257
1911.76	0.186876
1911.28	0.187413
1910.8	0.187184
1910.31	0.186438
1909.83	0.186331
1909.35	0.187451
1908.87	0.18871
1908.39	0.188677
1907.9	0.187356
1907.42	0.186206
1906.94	0.186358
1906.46	0.187413
1905.97	0.188474
1905.49	0.189099
1905.01	0.188971
1904.53	0.187777
1904.05	0.186152
1903.56	0.185764
1903.08	0.187109
1902.6	0.188242
1902.12	0.187373
1901.63	0.185778
1901.15	0.18617
1900.67	0.188427
1900.19	0.18966
1899.7	0.188628
1899.22	0.187367
1898.74	0.187426
1898.26	0.187411
1897.78	0.186105
1897.29	0.185347
1896.81	0.187061
1896.33	0.189414
1895.85	0.189155
1895.36	0.186586
1894.88	0.18518
1894.4	0.18625
1893.92	0.187324
1893.43	0.186736
1892.95	0.185833
1892.47	0.185921
1891.99	0.186306
1891.51	0.186497
1891.02	0.187644
1890.54	0.18988
1890.06	0.190727
1889.58	0.18834
1889.09	0.185359
1888.61	0.185711
1888.13	0.188191
1887.65	0.189042
1887.17	0.187775
1886.68	0.187051
1886.2	0.187999
1885.72	0.188579
1885.24	0.187614
1884.75	0.186993
1884.27	0.188328
1883.79	0.189889
1883.31	0.189349
1882.82	0.187362
1882.34	0.186297
1881.86	0.186661
1881.38	0.187127
1880.9	0.187161
1880.41	0.187391
1879.93	0.187817
1879.45	0.187682
1878.97	0.18705
1878.48	0.186871
1878	0.187322
1877.52	0.187599
1877.04	0.18736
1876.55	0.187059
1876.07	0.186837
1875.59	0.186394
1875.11	0.186049
1874.63	0.18655
1874.14	0.18765
1873.66	0.188234
1873.18	0.187983
1872.7	0.187693
1872.21	0.187648
1871.73	0.18719
1871.25	0.186403
1870.77	0.186562
1870.29	0.187958
1869.8	0.188841
1869.32	0.187441
1868.84	0.185086
1868.36	0.18484
1867.87	0.186456
1867.39	0.187192
1866.91	0.186154
1866.43	0.185371
1865.94	0.186451
1865.46	0.18809
1864.98	0.188168
1864.5	0.187013
1864.02	0.186739
1863.53	0.188018
1863.05	0.1893
1862.57	0.189451
1862.09	0.189245
1861.6	0.189329
1861.12	0.18871
1860.64	0.186751
1860.16	0.185212
1859.68	0.186203
1859.19	0.188945
1858.71	0.19064
1858.23	0.190306
1857.75	0.18955
1857.26	0.189497
1856.78	0.189275
1856.3	0.188232
1855.82	0.187395
1855.33	0.187687
1854.85	0.188395
1854.37	0.188655
1853.89	0.188765
1853.41	0.188956
1852.92	0.188439
1852.44	0.18704
1851.96	0.18635
1851.48	0.187534
1850.99	0.189245
1850.51	0.189514
1850.03	0.18842
1849.55	0.187505
1849.06	0.187173
1848.58	0.186763
1848.1	0.186525
1847.62	0.187424
1847.14	0.188992
1846.65	0.189548
1846.17	0.188741
1845.69	0.188224
1845.21	0.189324
1844.72	0.191518
1844.24	0.192219
1843.76	0.188955
1843.28	0.185051
1842.8	0.184173
1842.31	0.185931
1841.83	0.18802
1841.35	0.188152
1840.87	0.186864
1840.38	0.186453
1839.9	0.187335
1839.42	0.187742
1838.94	0.186978
1838.45	0.186722
1837.97	0.188079
1837.49	0.189646
1837.01	0.189699
1836.53	0.188705
1836.04	0.187997
1835.56	0.187749
1835.08	0.187785
1834.6	0.188487
1834.11	0.189557
1833.63	0.189734
1833.15	0.189061
1832.67	0.189176
1832.19	0.190171
1831.7	0.189816
1831.22	0.1877
1830.74	0.186604
1830.26	0.188444
1829.77	0.190186
1829.29	0.188029
1828.81	0.185338
1828.33	0.186131
1827.84	0.188496
1827.36	0.188635
1826.88	0.187326
1826.4	0.188222
1825.92	0.191115
1825.43	0.191608
1824.95	0.187845
1824.47	0.185115
1823.99	0.186786
1823.5	0.189417
1823.02	0.189889
1822.54	0.189004
1822.06	0.188892
1821.57	0.189435
1821.09	0.189486
1820.61	0.189243
1820.13	0.189248
1819.65	0.189117
1819.16	0.188869
1818.68	0.189502
1818.2	0.190913
1817.72	0.191342
1817.23	0.190262
1816.75	0.18962
1816.27	0.190515
1815.79	0.191031
1815.31	0.189614
1814.82	0.18794
1814.34	0.188534
1813.86	0.190841
1813.38	0.192279
1812.89	0.192065
1812.41	0.191455
1811.93	0.191263
1811.45	0.190974
1810.96	0.190231
1810.48	0.189579
1810	0.189777
1809.52	0.191052
1809.04	0.193027
1808.55	0.194639
1808.07	0.194451
1807.59	0.192469
1807.11	0.190879
1806.62	0.191252
1806.14	0.192512
1805.66	0.192971
1805.18	0.192894
1804.7	0.19337
1804.21	0.19385
1803.73	0.193093
1803.25	0.191745
1802.77	0.191524
1802.28	0.192348
1801.8	0.192363
1801.32	0.191725
1800.84	0.192779
1800.35	0.195512
1799.87	0.196412
1799.39	0.193472
1798.91	0.19025
1798.43	0.19116
1797.94	0.194336
1797.46	0.195422
1796.98	0.193942
1796.5	0.193281
1796.01	0.195326
1795.53	0.197336
1795.05	0.196633
1794.57	0.194647
1794.08	0.194298
1793.6	0.195446
1793.12	0.196225
1792.64	0.195715
1792.16	0.195087
1791.67	0.195212
1791.19	0.195281
1790.71	0.195208
1790.23	0.195784
1789.74	0.197161
1789.26	0.198681
1788.78	0.199835
1788.3	0.199993
1787.82	0.198818
1787.33	0.197494
1786.85	0.197801
1786.37	0.199464
1785.89	0.199964
1785.4	0.198435
1784.92	0.197651
1784.44	0.200381
1783.96	0.203475
1783.47	0.202724
1782.99	0.19956
1782.51	0.198357
1782.03	0.200457
1781.55	0.20244
1781.06	0.201994
1780.58	0.200973
1780.1	0.201993
1779.62	0.203819
1779.13	0.204362
1778.65	0.204049
1778.17	0.20403
1777.69	0.204057
1777.21	0.203753
1776.72	0.204184
1776.24	0.206168
1775.76	0.208348
1775.28	0.208814
1774.79	0.207998
1774.31	0.207787
1773.83	0.208373
1773.35	0.208884
1772.86	0.209142
1772.38	0.209503
1771.9	0.209294
1771.42	0.208033
1770.94	0.207123
1770.45	0.208443
1769.97	0.211527
1769.49	0.214378
1769.01	0.216357
1768.52	0.217244
1768.04	0.216053
1767.56	0.213503
1767.08	0.212851
1766.59	0.215493
1766.11	0.219961
1765.63	0.223598
1765.15	0.225108
1764.67	0.225448
1764.18	0.22595
1763.7	0.227187
1763.22	0.229423
1762.74	0.232504
1762.25	0.235197
1761.77	0.235729
1761.29	0.235042
1760.81	0.236737
1760.33	0.24058
1759.84	0.244034
1759.36	0.246356
1758.88	0.249136
1758.4	0.253326
1757.91	0.257237
1757.43	0.259292
1756.95	0.260485
1756.47	0.262932
1755.98	0.265589
1755.5	0.266406
1755.02	0.266914
1754.54	0.269765
1754.06	0.273901
1753.57	0.275467
1753.09	0.274356
1752.61	0.275111
1752.13	0.279141
1751.64	0.281625
1751.16	0.277162
1750.68	0.272521
1750.2	0.2772
1749.72	0.284954
1749.23	0.287605
1748.75	0.283898
1748.27	0.280704
1747.79	0.282883
1747.3	0.286342
1746.82	0.287573
1746.34	0.288741
1745.86	0.292336
1745.37	0.296854
1744.89	0.300473
1744.41	0.303964
1743.93	0.308029
1743.45	0.311091
1742.96	0.31244
1742.48	0.315152
1742	0.321678
1741.52	0.329746
1741.03	0.336584
1740.55	0.342486
1740.07	0.349461
1739.59	0.358146
1739.1	0.366823
1738.62	0.375402
1738.14	0.385398
1737.66	0.397088
1737.18	0.409844
1736.69	0.423372
1736.21	0.437786
1735.73	0.452279
1735.25	0.465142
1734.76	0.47623
1734.28	0.491157
1733.8	0.516915
1733.32	0.546518
1732.84	0.571142
1732.35	0.595536
1731.87	0.623878
1731.39	0.6524
1730.91	0.676369
1730.42	0.700435
1729.94	0.736594
1729.46	0.784618
1728.98	0.827164
1728.49	0.860342
1728.01	0.898442
1727.53	0.948727
1727.05	1.00188
1726.57	1.05204
1726.08	1.11047
1725.6	1.18153
1725.12	1.24928
1724.64	1.31049
1724.15	1.39028
1723.67	1.49767
1723.19	1.59933
1722.71	1.68602
1722.23	1.80672
1721.74	1.95341
1721.26	2.03791
1720.78	2.13413
1720.3	2.49099
1719.81	4.10662
1719.33	2.79639
1718.85	2.33194
1718.37	2.44416
1717.88	2.89278
1717.4	2.2807
1716.92	2.05019
1716.44	2.19301
1715.96	2.17519
1715.47	1.80742
1714.99	1.55999
1714.51	1.50195
1714.03	1.4901
1713.54	1.37945
1713.06	1.25622
1712.58	1.19217
1712.1	1.15467
1711.61	1.09109
1711.13	1.01576
1710.65	0.962973
1710.17	0.926664
1709.69	0.881279
1709.2	0.831271
1708.72	0.79388
1708.24	0.763839
1707.76	0.727299
1707.27	0.687891
1706.79	0.657013
1706.31	0.635092
1705.83	0.612358
1705.35	0.588484
1704.86	0.56898
1704.38	0.551664
1703.9	0.531394
1703.42	0.511496
1702.93	0.496068
1702.45	0.482223
1701.97	0.467383
1701.49	0.45405
1701	0.444452
1700.52	0.434357
1700.04	0.41303
1699.56	0.399632
1699.08	0.398434
1698.59	0.394565
1698.11	0.385922
1697.63	0.376041
1697.15	0.369335
1696.66	0.365066
1696.18	0.360207
1695.7	0.352734
1695.22	0.345019
1694.74	0.339971
1694.25	0.33677
1693.77	0.335425
1693.29	0.334674
1692.81	0.331849
1692.32	0.327311
1691.84	0.324164
1691.36	0.32273
1690.88	0.32047
1690.39	0.316882
1689.91	0.314231
1689.43	0.312666
1688.95	0.31012
1688.47	0.307417
1687.98	0.307094
1687.5	0.307483
1687.02	0.304468
1686.54	0.299773
1686.05	0.29831
1685.57	0.300658
1685.09	0.301944
1684.61	0.296025
1684.12	0.287505
1683.64	0.284023
1683.16	0.280493
1682.68	0.276132
1682.2	0.275309
1681.71	0.27718
1681.23	0.276779
1680.75	0.272411
1680.27	0.267694
1679.78	0.265751
1679.3	0.264066
1678.82	0.260535
1678.34	0.257315
1677.86	0.255541
1677.37	0.253415
1676.89	0.250741
1676.41	0.250153
1675.93	0.25208
1675.44	0.251739
1674.96	0.243494
1674.48	0.236896
1674	0.237484
1673.51	0.239615
1673.03	0.23981
1672.55	0.23869
1672.07	0.237619
1671.59	0.235592
1671.1	0.23229
1670.62	0.231049
1670.14	0.2325
1669.66	0.233284
1669.17	0.230125
1668.69	0.225763
1668.21	0.225355
1667.73	0.22558
1667.25	0.224162
1666.76	0.223018
1666.28	0.224079
1665.8	0.225243
1665.32	0.224144
1664.83	0.222166
1664.35	0.222347
1663.87	0.224039
1663.39	0.22443
1662.9	0.221883
1662.42	0.218175
1661.94	0.216645
1661.46	0.216753
1660.98	0.217159
1660.49	0.217369
1660.01	0.217105
1659.53	0.216574
1659.05	0.216278
1658.56	0.21603
1658.08	0.215145
1657.6	0.21387
1657.12	0.213319
1656.63	0.213956
1656.15	0.215163
1655.67	0.216512
1655.19	0.217825
1654.71	0.217911
1654.22	0.215601
1653.74	0.213136
1653.26	0.214136
1652.78	0.214895
1652.29	0.20543
1651.81	0.200379
1651.33	0.203883
1650.85	0.208715
1650.37	0.210552
1649.88	0.209049
1649.4	0.208315
1648.92	0.210227
1648.44	0.211164
1647.95	0.207632
1647.47	0.204132
1646.99	0.206514
1646.51	0.210798
1646.02	0.209492
1645.54	0.202296
1645.06	0.200477
1644.58	0.204174
1644.1	0.207101
1643.61	0.206891
1643.13	0.205168
1642.65	0.204357
1642.17	0.204113
1641.68	0.203424
1641.2	0.203095
1640.72	0.203892
1640.24	0.204601
1639.76	0.203883
1639.27	0.202606
1638.79	0.20234
1638.31	0.202438
1637.83	0.201278
1637.34	0.199543
1636.86	0.200213
1636.38	0.203224
1635.9	0.205917
1635.41	0.203786
1634.93	0.196774
1634.45	0.195138
1633.97	0.197284
1633.49	0.199381
1633	0.20065
1632.52	0.201473
1632.04	0.201983
1631.56	0.201717
1631.07	0.200587
1630.59	0.199312
1630.11	0.198742
1629.63	0.199349
1629.14	0.201032
1628.66	0.202741
1628.18	0.202761
1627.7	0.200585
1627.22	0.198976
1626.73	0.199936
1626.25	0.201137
1625.77	0.200384
1625.29	0.199191
1624.8	0.200555
1624.32	0.203666
1623.84	0.204635
1623.36	0.201579
1622.88	0.19971
1622.39	0.202244
1621.91	0.204038
1621.43	0.202041
1620.95	0.198564
1620.46	0.198191
1619.98	0.200942
1619.5	0.203065
1619.02	0.202701
1618.53	0.20158
1618.05	0.201846
1617.57	0.203295
1617.09	0.204324
1616.61	0.201776
1616.12	0.196225
1615.64	0.194639
1615.16	0.196644
1614.68	0.199437
1614.19	0.200855
1613.71	0.200384
1613.23	0.199723
1612.75	0.199606
1612.27	0.198773
1611.78	0.196972
1611.3	0.196186
1610.82	0.197201
1610.34	0.198062
1609.85	0.197187
1609.37	0.195988
1608.89	0.196358
1608.41	0.197194
1607.92	0.196552
1607.44	0.194931
1606.96	0.194121
1606.48	0.194342
1606	0.194542
1605.51	0.194754
1605.03	0.195699
1604.55	0.196904
1604.07	0.197191
1603.58	0.196521
1603.1	0.195734
1602.62	0.195182
1602.14	0.194774
1601.65	0.194579
1601.17	0.194368
1600.69	0.193573
1600.21	0.192596
1599.73	0.192726
1599.24	0.193891
1598.76	0.194319
1598.28	0.193403
1597.8	0.193074
1597.31	0.194559
1596.83	0.195957
1596.35	0.19498
1595.87	0.192694
1595.39	0.191716
1594.9	0.192241
1594.42	0.192478
1593.94	0.191967
1593.46	0.191866
1592.97	0.192362
1592.49	0.192589
1592.01	0.192661
1591.53	0.193387
1591.04	0.194182
1590.56	0.19364
1590.08	0.192147
1589.6	0.191602
1589.12	0.192527
1588.63	0.193471
1588.15	0.19363
1587.67	0.193696
1587.19	0.193919
1586.7	0.19364
1586.22	0.193142
1585.74	0.193555
1585.26	0.194308
1584.78	0.193266
1584.29	0.190509
1583.81	0.189196
1583.33	0.190951
1582.85	0.192834
1582.36	0.191784
1581.88	0.189493
1581.4	0.189617
1580.92	0.191617
1580.43	0.19188
1579.95	0.189952
1579.47	0.189259
1578.99	0.190955
1578.51	0.192152
1578.02	0.191415
1577.54	0.191773
1577.06	0.19513
1576.58	0.198235
1576.09	0.19292
1575.61	0.182655
1575.13	0.184061
1574.65	0.189971
1574.16	0.193129
1573.68	0.192295
1573.2	0.191007
1572.72	0.191835
1572.24	0.192586
1571.75	0.191463
1571.27	0.190832
1570.79	0.19266
1570.31	0.194737
1569.82	0.192883
1569.34	0.18687
1568.86	0.184364
1568.38	0.186461
1567.9	0.189233
1567.41	0.191004
1566.93	0.1914
1566.45	0.190323
1565.97	0.188767
1565.48	0.188585
1565	0.190143
1564.52	0.191324
1564.04	0.190832
1563.55	0.190766
1563.07	0.192023
1562.59	0.192795
1562.11	0.19204
1561.63	0.192245
1561.14	0.195034
1560.66	0.198306
1560.18	0.196332
1559.7	0.188201
1559.21	0.188155
1558.73	0.193031
1558.25	0.192503
1557.77	0.18365
1557.29	0.181331
1556.8	0.18595
1556.32	0.18999
1555.84	0.192388
1555.36	0.194809
1554.87	0.196924
1554.39	0.194339
1553.91	0.186198
1553.43	0.183794
1552.94	0.187998
1552.46	0.192322
1551.98	0.193171
1551.5	0.192127
1551.02	0.192883
1550.53	0.19485
1550.05	0.194195
1549.57	0.190249
1549.09	0.188545
1548.6	0.1904
1548.12	0.192303
1547.64	0.191607
1547.16	0.18934
1546.67	0.188677
1546.19	0.190747
1545.71	0.194158
1545.23	0.19566
1544.75	0.192209
1544.26	0.187182
1543.78	0.186094
1543.3	0.189096
1542.82	0.19388
1542.33	0.196494
1541.85	0.193011
1541.37	0.188277
1540.89	0.187823
1540.41	0.190164
1539.92	0.191426
1539.44	0.18784
1538.96	0.183003
1538.48	0.18462
1537.99	0.188685
1537.51	0.190225
1537.03	0.189747
1536.55	0.189516
1536.06	0.190319
1535.58	0.190795
1535.1	0.190485
1534.62	0.191202
1534.14	0.193847
1533.65	0.195234
1533.17	0.190953
1532.69	0.186822
1532.21	0.187432
1531.72	0.190055
1531.24	0.190979
1530.76	0.190066
1530.28	0.190275
1529.8	0.191625
1529.31	0.191451
1528.83	0.189434
1528.35	0.188864
1527.87	0.190812
1527.38	0.191745
1526.9	0.19017
1526.42	0.189949
1525.94	0.192643
1525.45	0.194203
1524.97	0.189927
1524.49	0.18661
1524.01	0.189354
1523.53	0.19398
1523.04	0.194838
1522.56	0.191044
1522.08	0.189524
1521.6	0.192899
1521.11	0.194618
1520.63	0.190163
1520.15	0.187618
1519.67	0.190235
1519.18	0.192291
1518.7	0.19218
1518.22	0.193148
1517.74	0.19691
1517.26	0.198222
1516.77	0.190952
1516.29	0.184653
1515.81	0.187317
1515.33	0.193259
1514.84	0.194738
1514.36	0.191783
1513.88	0.191334
1513.4	0.194424
1512.92	0.195686
1512.43	0.191949
1511.95	0.187959
1511.47	0.189627
1510.99	0.19314
1510.5	0.193948
1510.02	0.192868
1509.54	0.192546
1509.06	0.19309
1508.57	0.19293
1508.09	0.192879
1507.61	0.194159
1507.13	0.194713
1506.65	0.191391
1506.16	0.188189
1505.68	0.189623
1505.2	0.191577
1504.72	0.190358
1504.23	0.189636
1503.75	0.192213
1503.27	0.196654
1502.79	0.198961
1502.31	0.197409
1501.82	0.195154
1501.34	0.19486
1500.86	0.195802
1500.38	0.196402
1499.89	0.196763
1499.41	0.197176
1498.93	0.196621
1498.45	0.194712
1497.96	0.194488
1497.48	0.196811
1497	0.19992
1496.52	0.201663
1496.04	0.199187
1495.55	0.195599
1495.07	0.19615
1494.59	0.199107
1494.11	0.201322
1493.62	0.20065
1493.14	0.198564
1492.66	0.198605
1492.18	0.200977
1491.69	0.202666
1491.21	0.201925
1490.73	0.200892
1490.25	0.202002
1489.77	0.203273
1489.28	0.20209
1488.8	0.201448
1488.32	0.203742
1487.84	0.207008
1487.35	0.20761
1486.87	0.205894
1486.39	0.206584
1485.91	0.209907
1485.43	0.212316
1484.94	0.212786
1484.46	0.213725
1483.98	0.216428
1483.5	0.218874
1483.01	0.219666
1482.53	0.220443
1482.05	0.222631
1481.57	0.225045
1481.08	0.226693
1480.6	0.22921
1480.12	0.233597
1479.64	0.237521
1479.16	0.238983
1478.67	0.239163
1478.19	0.240347
1477.71	0.242446
1477.23	0.243854
1476.74	0.244098
1476.26	0.243259
1475.78	0.241723
1475.3	0.24116
1474.82	0.242063
1474.33	0.243161
1473.85	0.242287
1473.37	0.239034
1472.89	0.237989
1472.4	0.240552
1471.92	0.241827
1471.44	0.238331
1470.96	0.235637
1470.47	0.237903
1469.99	0.242067
1469.51	0.243954
1469.03	0.242519
1468.55	0.24142
1468.06	0.242712
1467.58	0.243693
1467.1	0.241351
1466.62	0.237567
1466.13	0.236249
1465.65	0.237424
1465.17	0.238201
1464.69	0.235939
1464.2	0.233398
1463.72	0.233744
1463.24	0.234954
1462.76	0.234708
1462.28	0.233096
1461.79	0.23233
1461.31	0.233213
1460.83	0.233942
1460.35	0.232968
1459.86	0.231166
1459.38	0.229928
1458.9	0.229393
1458.42	0.229512
1457.94	0.230828
1457.45	0.232964
1456.97	0.233639
1456.49	0.229853
1456.01	0.228047
1455.52	0.231528
1455.04	0.23574
1454.56	0.238256
1454.08	0.238624
1453.59	0.23877
1453.11	0.239837
1452.63	0.241266
1452.15	0.242866
1451.67	0.244905
1451.18	0.246494
1450.7	0.246638
1450.22	0.246525
1449.74	0.248536
1449.25	0.25184
1448.77	0.253163
1448.29	0.251468
1447.81	0.249982
1447.32	0.251153
1446.84	0.251515
1446.36	0.248932
1445.88	0.246014
1445.4	0.244956
1444.91	0.244076
1444.43	0.241285
1443.95	0.238222
1443.47	0.236693
1442.98	0.235051
1442.5	0.231487
1442.02	0.227927
1441.54	0.226443
1441.06	0.225554
1440.57	0.223145
1440.09	0.220736
1439.61	0.220523
1439.13	0.221235
1438.64	0.220101
1438.16	0.218046
1437.68	0.217766
1437.2	0.219053
1436.71	0.217327
1436.23	0.210251
1435.75	0.207224
1435.27	0.20881
1434.79	0.210889
1434.3	0.211419
1433.82	0.210596
1433.34	0.209755
1432.86	0.209252
1432.37	0.208792
1431.89	0.208596
1431.41	0.208948
1430.93	0.209448
1430.45	0.209366
1429.96	0.208155
1429.48	0.206252
1429	0.205122
1428.52	0.205467
1428.03	0.206725
1427.55	0.207784
1427.07	0.208082
1426.59	0.208128
1426.1	0.208092
1425.62	0.207193
1425.14	0.205416
1424.66	0.20416
1424.18	0.204203
1423.69	0.204565
1423.21	0.204058
1422.73	0.203632
1422.25	0.204106
1421.76	0.204465
1421.28	0.203707
1420.8	0.203507
1420.32	0.205863
1419.83	0.210336
1419.35	0.21146
1418.87	0.203995
1418.39	0.199359
1417.91	0.200956
1417.42	0.20489
1416.94	0.206985
1416.46	0.205921
1415.98	0.204585
1415.49	0.20465
1415.01	0.205323
1414.53	0.205533
1414.05	0.205379
1413.57	0.205187
1413.08	0.204902
1412.6	0.204825
1412.12	0.205537
1411.64	0.20685
1411.15	0.207703
1410.67	0.207559
1410.19	0.20725
1409.71	0.207542
1409.22	0.208082
1408.74	0.208174
1408.26	0.208034
1407.78	0.208332
1407.3	0.209075
1406.81	0.209555
1406.33	0.209517
1405.85	0.209604
1405.37	0.210588
1404.88	0.212509
1404.4	0.214198
1403.92	0.21474
1403.44	0.214382
1402.96	0.213872
1402.47	0.21404
1401.99	0.215221
1401.51	0.216856
1401.03	0.218071
1400.54	0.21876
1400.06	0.219615
1399.58	0.221001
1399.1	0.222234
1398.61	0.22249
1398.13	0.222506
1397.65	0.22324
1397.17	0.2244
1396.69	0.225511
1396.2	0.227044
1395.72	0.229599
1395.24	0.232275
1394.76	0.2334
1394.27	0.233303
1393.79	0.234869
1393.31	0.238637
1392.83	0.242085
1392.34	0.24393
1391.86	0.245217
1391.38	0.247457
1390.9	0.250297
1390.42	0.252567
1389.93	0.2544
1389.45	0.256458
1388.97	0.258224
1388.49	0.258761
1388	0.258202
1387.52	0.257703
1387.04	0.258407
1386.56	0.259539
1386.08	0.259727
1385.59	0.258733
1385.11	0.257284
1384.63	0.256856
1384.15	0.258044
1383.66	0.25918
1383.18	0.257835
1382.7	0.254141
1382.22	0.251489
1381.73	0.252291
1381.25	0.254707
1380.77	0.2549
1380.29	0.252086
1379.81	0.249168
1379.32	0.248496
1378.84	0.24896
1378.36	0.248047
1377.88	0.245324
1377.39	0.242597
1376.91	0.241256
1376.43	0.240563
1375.95	0.239121
1375.47	0.236637
1374.98	0.233952
1374.5	0.231681
1374.02	0.229415
1373.54	0.226834
1373.05	0.224662
1372.57	0.223386
1372.09	0.222337
1371.61	0.220913
1371.12	0.219622
1370.64	0.219315
1370.16	0.219553
1369.68	0.219132
1369.2	0.217828
1368.71	0.21662
1368.23	0.216013
1367.75	0.215335
1367.27	0.214371
1366.78	0.214017
1366.3	0.214607
1365.82	0.215173
1365.34	0.21512
1364.85	0.215381
1364.37	0.216493
1363.89	0.216988
1363.41	0.214988
1362.93	0.211303
1362.44	0.20937
1361.96	0.209436
1361.48	0.208962
1361	0.207288
1360.51	0.20648
1360.03	0.207668
1359.55	0.208797
1359.07	0.208055
1358.59	0.205814
1358.1	0.20376
1357.62	0.202981
1357.14	0.203319
1356.66	0.20404
1356.17	0.204055
1355.69	0.202851
1355.21	0.201507
1354.73	0.20144
1354.24	0.202145
1353.76	0.201781
1353.28	0.200447
1352.8	0.200101
1352.32	0.201141
1351.83	0.201384
1351.35	0.199704
1350.87	0.198101
1350.39	0.198501
1349.9	0.199649
1349.42	0.199239
1348.94	0.197586
1348.46	0.196869
1347.98	0.197793
1347.49	0.19909
1347.01	0.199726
1346.53	0.19949
1346.05	0.198346
1345.56	0.19675
1345.08	0.195972
1344.6	0.196748
1344.12	0.197769
1343.63	0.197175
1343.15	0.195299
1342.67	0.19447
1342.19	0.196049
1341.71	0.198484
1341.22	0.199355
1340.74	0.197839
1340.26	0.195658
1339.78	0.195364
1339.29	0.196734
1338.81	0.197284
1338.33	0.19596
1337.85	0.194966
1337.36	0.196291
1336.88	0.198397
1336.4	0.198405
1335.92	0.196499
1335.44	0.195659
1334.95	0.196509
1334.47	0.196933
1333.99	0.196122
1333.51	0.195809
1333.02	0.196577
1332.54	0.196573
1332.06	0.195354
1331.58	0.195475
1331.1	0.19805
1330.61	0.200202
1330.13	0.199328
1329.65	0.197151
1329.17	0.196729
1328.68	0.197737
1328.2	0.198095
1327.72	0.197922
1327.24	0.198526
1326.75	0.199137
1326.27	0.198157
1325.79	0.196579
1325.31	0.196799
1324.83	0.198736
1324.34	0.200123
1323.86	0.200134
1323.38	0.200078
1322.9	0.200733
1322.41	0.201519
1321.93	0.202113
1321.45	0.202683
1320.97	0.202812
1320.49	0.202168
1320	0.201762
1319.52	0.202567
1319.04	0.203595
1318.56	0.203341
1318.07	0.202602
1317.59	0.203291
1317.11	0.205127
1316.63	0.205982
1316.14	0.20523
1315.66	0.204652
1315.18	0.205558
1314.7	0.207365
1314.22	0.20899
1313.73	0.21009
1313.25	0.210735
1312.77	0.211109
1312.29	0.211901
1311.8	0.213732
1311.32	0.216055
1310.84	0.21779
1310.36	0.218884
1309.87	0.220395
1309.39	0.223001
1308.91	0.226166
1308.43	0.228902
1307.95	0.230802
1307.46	0.232397
1306.98	0.234632
1306.5	0.237771
1306.02	0.240798
1305.53	0.242476
1305.05	0.242977
1304.57	0.243641
1304.09	0.245056
1303.61	0.246408
1303.12	0.246963
1302.64	0.246984
1302.16	0.246887
1301.68	0.246658
1301.19	0.246416
1300.71	0.246352
1300.23	0.245951
1299.75	0.244739
1299.26	0.243708
1298.78	0.244065
1298.3	0.2446
1297.82	0.242906
1297.34	0.23955
1296.85	0.237967
1296.37	0.239196
1295.89	0.239992
1295.41	0.237964
1294.92	0.235171
1294.44	0.234454
1293.96	0.23516
1293.48	0.235229
1293	0.2348
1292.51	0.234696
1292.03	0.233744
1291.55	0.230886
1291.07	0.228018
1290.58	0.227374
1290.1	0.227738
1289.62	0.226653
1289.14	0.22482
1288.65	0.224693
1288.17	0.225831
1287.69	0.225425
1287.21	0.222933
1286.73	0.220692
1286.24	0.219909
1285.76	0.219497
1285.28	0.218859
1284.8	0.218787
1284.31	0.219274
1283.83	0.21909
1283.35	0.21801
1282.87	0.217277
1282.38	0.217357
1281.9	0.217223
1281.42	0.216295
1280.94	0.215445
1280.46	0.215495
1279.97	0.216009
1279.49	0.215976
1279.01	0.214969
1278.53	0.213486
1278.04	0.21254
1277.56	0.212601
1277.08	0.212717
1276.6	0.211647
1276.12	0.210056
1275.63	0.209978
1275.15	0.211533
1274.67	0.212312
1274.19	0.211013
1273.7	0.209484
1273.22	0.209588
1272.74	0.210272
1272.26	0.209886
1271.77	0.209232
1271.29	0.209977
1270.81	0.21145
1270.33	0.211732
1269.85	0.210693
1269.36	0.209694
1268.88	0.209262
1268.4	0.209045
1267.92	0.209088
1267.43	0.209359
1266.95	0.209089
1266.47	0.20813
1265.99	0.207666
1265.51	0.208184
1265.02	0.208321
1264.54	0.207404
1264.06	0.207109
1263.58	0.208612
1263.09	0.210143
1262.61	0.209747
1262.13	0.208498
1261.65	0.208477
1261.16	0.209277
1260.68	0.2093
1260.2	0.208872
1259.72	0.209247
1259.24	0.209862
1258.75	0.209566
1258.27	0.209214
1257.79	0.210095
1257.31	0.211153
1256.82	0.210797
1256.34	0.210196
1255.86	0.211415
1255.38	0.213324
1254.89	0.213049
1254.41	0.210897
1253.93	0.210203
1253.45	0.21218
1252.97	0.214395
1252.48	0.214825
1252	0.214342
1251.52	0.214379
1251.04	0.214745
1250.55	0.214817
1250.07	0.214966
1249.59	0.215835
1249.11	0.217325
1248.63	0.21868
1248.14	0.2189
1247.66	0.217489
1247.18	0.215523
1246.7	0.215037
1246.21	0.21635
1245.73	0.217442
1245.25	0.217246
1244.77	0.21756
1244.28	0.219772
1243.8	0.221847
1243.32	0.22143
1242.84	0.220014
1242.36	0.220669
1241.87	0.223085
1241.39	0.224464
1240.91	0.224329
1240.43	0.224724
1239.94	0.226056
1239.46	0.226603
1238.98	0.226255
1238.5	0.22702
1238.02	0.229187
1237.53	0.230491
1237.05	0.230069
1236.57	0.230062
1236.09	0.231916
1235.6	0.233843
1235.12	0.233692
1234.64	0.232337
1234.16	0.232383
1233.67	0.234746
1233.19	0.238017
1232.71	0.240433
1232.23	0.241418
1231.75	0.241627
1231.26	0.242123
1230.78	0.243286
1230.3	0.244452
1229.82	0.24498
1229.33	0.24538
1228.85	0.246722
1228.37	0.249224
1227.89	0.252119
1227.4	0.254627
1226.92	0.256461
1226.44	0.257827
1225.96	0.259476
1225.48	0.262082
1224.99	0.265068
1224.51	0.26701
1224.03	0.267807
1223.55	0.269281
1223.06	0.272609
1222.58	0.276509
1222.1	0.279076
1221.62	0.280344
1221.14	0.281779
1220.65	0.284228
1220.17	0.287662
1219.69	0.291892
1219.21	0.296355
1218.72	0.300169
1218.24	0.303334
1217.76	0.306842
1217.28	0.310847
1216.79	0.314257
1216.31	0.317055
1215.83	0.321044
1215.35	0.326923
1214.87	0.332755
1214.38	0.337022
1213.9	0.341183
1213.42	0.347113
1212.94	0.353976
1212.45	0.360005
1211.97	0.365469
1211.49	0.371496
1211.01	0.377591
1210.53	0.383068
1210.04	0.389287
1209.56	0.397634
1209.08	0.40666
1208.6	0.414088
1208.11	0.420476
1207.63	0.428104
1207.15	0.437333
1206.67	0.446755
1206.18	0.455545
1205.7	0.463414
1205.22	0.470135
1204.74	0.477411
1204.26	0.488458
1203.77	0.502859
1203.29	0.515006
1202.81	0.521918
1202.33	0.528955
1201.84	0.542157
1201.36	0.55881
1200.88	0.571885
1200.4	0.581295
1199.91	0.592639
1199.43	0.606787
1198.95	0.619582
1198.47	0.630917
1197.99	0.645051
1197.5	0.661674
1197.02	0.675889
1196.54	0.68803
1196.06	0.704162
1195.57	0.725493
1195.09	0.746713
1194.61	0.766441
1194.13	0.789104
1193.65	0.813521
1193.16	0.83159
1192.68	0.84381
1192.2	0.8628
1191.72	0.89466
1191.23	0.929097
1190.75	0.954938
1190.27	0.977585
1189.79	1.00851
1189.3	1.04666
1188.82	1.08126
1188.34	1.10705
1187.86	1.12851
1187.38	1.15365
1186.89	1.19029
1186.41	1.23889
1185.93	1.28269
1185.45	1.30311
1184.96	1.31263
1184.48	1.34083
1184	1.38937
1183.52	1.42532
1183.04	1.43204
1182.55	1.43483
1182.07	1.44924
1181.59	1.45724
1181.11	1.44875
1180.62	1.44191
1180.14	1.44157
1179.66	1.42447
1179.18	1.38475
1178.69	1.34914
1178.21	1.33142
1177.73	1.31506
1177.25	1.28492
1176.77	1.25089
1176.28	1.22504
1175.8	1.20109
1175.32	1.16849
1174.84	1.13071
1174.35	1.09775
1173.87	1.0726
1173.39	1.05217
1172.91	1.03341
1172.42	1.0137
1171.94	0.990621
1171.46	0.965108
1170.98	0.941317
1170.5	0.921819
1170.01	0.905585
1169.53	0.890556
1169.05	0.875304
1168.57	0.85866
1168.08	0.841041
1167.6	0.825503
1167.12	0.814419
1166.64	0.806044
1166.16	0.797266
1165.67	0.788677
1165.19	0.783273
1164.71	0.781164
1164.23	0.779502
1163.74	0.777421
1163.26	0.77714
1162.78	0.779906
1162.3	0.784345
1161.81	0.789387
1161.33	0.795807
1160.85	0.804449
1160.37	0.815513
1159.89	0.82941
1159.4	0.845748
1158.92	0.862334
1158.44	0.878413
1157.96	0.897415
1157.47	0.921895
1156.99	0.947542
1156.51	0.968138
1156.03	0.985456
1155.55	1.00633
1155.06	1.03127
1154.58	1.05412
1154.1	1.07271
1153.62	1.09099
1153.13	1.11072
1152.65	1.12987
1152.17	1.14742
1151.69	1.16143
1151.2	1.16635
1150.72	1.1621
1150.24	1.15824
1149.76	1.1585
1149.28	1.15137
1148.79	1.12735
1148.31	1.09599
1147.83	1.0708
1147.35	1.0516
1146.86	1.03064
1146.38	1.00617
1145.9	0.981201
1145.42	0.955651
1144.93	0.928651
1144.45	0.903582
1143.97	0.883811
1143.49	0.866921
1143.01	0.847399
1142.52	0.823279
1142.04	0.797192
1141.56	0.77281
1141.08	0.752691
1140.59	0.736815
1140.11	0.721755
1139.63	0.703826
1139.15	0.683607
1138.67	0.664554
1138.18	0.647741
1137.7	0.631665
1137.22	0.616586
1136.74	0.60456
1136.25	0.594935
1135.77	0.584136
1135.29	0.570981
1134.81	0.558281
1134.32	0.547741
1133.84	0.537524
1133.36	0.526339
1132.88	0.516009
1132.4	0.507807
1131.91	0.499706
1131.43	0.489686
1130.95	0.479057
1130.47	0.470122
1129.98	0.462999
1129.5	0.456822
1129.02	0.451753
1128.54	0.447557
1128.06	0.442353
1127.57	0.435319
1127.09	0.428722
1126.61	0.42451
1126.13	0.420745
1125.64	0.414374
1125.16	0.406543
1124.68	0.401497
1124.2	0.400452
1123.71	0.399815
1123.23	0.396213
1122.75	0.390957
1122.27	0.387721
1121.79	0.387542
1121.3	0.387989
1120.82	0.386643
1120.34	0.383803
1119.86	0.381492
1119.37	0.380804
1118.89	0.381019
1118.41	0.380976
1117.93	0.380548
1117.44	0.380451
1116.96	0.381146
1116.48	0.382574
1116	0.384657
1115.52	0.387315
1115.03	0.390029
1114.55	0.392115
1114.07	0.393613
1113.59	0.395242
1113.1	0.397185
1112.62	0.3985
1112.14	0.398254
1111.66	0.39684
1111.18	0.395651
1110.69	0.395518
1110.21	0.39569
1109.73	0.394532
1109.25	0.391431
1108.76	0.38772
1108.28	0.385142
1107.8	0.383667
1107.32	0.381723
1106.83	0.378715
1106.35	0.37606
1105.87	0.375061
1105.39	0.37505
1104.91	0.374609
1104.42	0.373689
1103.94	0.37322
1103.46	0.373331
1102.98	0.373399
1102.49	0.373467
1102.01	0.374284
1101.53	0.376094
1101.05	0.378436
1100.57	0.380927
1100.08	0.383287
1099.6	0.384798
1099.12	0.384828
1098.64	0.383714
1098.15	0.382174
1097.67	0.380118
1097.19	0.377016
1096.71	0.373033
1096.22	0.368829
1095.74	0.364557
1095.26	0.359856
1094.78	0.354495
1094.3	0.348552
1093.81	0.342446
1093.33	0.33703
1092.85	0.332779
1092.37	0.328725
1091.88	0.323455
1091.4	0.31749
1090.92	0.313043
1090.44	0.310795
1089.95	0.308741
1089.47	0.305236
1088.99	0.301355
1088.51	0.298601
1088.03	0.296179
1087.54	0.292748
1087.06	0.289406
1086.58	0.288221
1086.1	0.288493
1085.61	0.28723
1085.13	0.283539
1084.65	0.279781
1084.17	0.277861
1083.69	0.276675
1083.2	0.274316
1082.72	0.271178
1082.24	0.269207
1081.76	0.269015
1081.27	0.269179
1080.79	0.268292
1080.31	0.266521
1079.83	0.264849
1079.34	0.263581
1078.86	0.262266
1078.38	0.260845
1077.9	0.260007
1077.42	0.26003
1076.93	0.259936
1076.45	0.258523
1075.97	0.255959
1075.49	0.253555
1075	0.252134
1074.52	0.251534
1074.04	0.251398
1073.56	0.251471
1073.08	0.251281
1072.59	0.250515
1072.11	0.249607
1071.63	0.248997
1071.15	0.248115
1070.66	0.24637
1070.18	0.244688
1069.7	0.244426
1069.22	0.245085
1068.73	0.244962
1068.25	0.243859
1067.77	0.243048
1067.29	0.242642
1066.81	0.241441
1066.32	0.239508
1065.84	0.238286
1065.36	0.237835
1064.88	0.236808
1064.39	0.235551
1063.91	0.236087
1063.43	0.238145
1062.95	0.23862
1062.46	0.23633
1061.98	0.23407
1061.5	0.234016
1061.02	0.234603
1060.54	0.23402
1060.05	0.233349
1059.57	0.233676
1059.09	0.233513
1058.61	0.232135
1058.12	0.232104
1057.64	0.234794
1057.16	0.236672
1056.68	0.234327
1056.2	0.230529
1055.71	0.230208
1055.23	0.232702
1054.75	0.233376
1054.27	0.23154
1053.78	0.231027
1053.3	0.233086
1052.82	0.234373
1052.34	0.232944
1051.85	0.231354
1051.37	0.232097
1050.89	0.234064
1050.41	0.235134
1049.93	0.235105
1049.44	0.234484
1048.96	0.233189
1048.48	0.231792
1048	0.231612
1047.51	0.232568
1047.03	0.233121
1046.55	0.232896
1046.07	0.23295
1045.58	0.233247
1045.1	0.232549
1044.62	0.231197
1044.14	0.231102
1043.66	0.232532
1043.17	0.233689
1042.69	0.233979
1042.21	0.234746
1041.73	0.236125
1041.24	0.236508
1040.76	0.23605
1040.28	0.237236
1039.8	0.240564
1039.32	0.242964
1038.83	0.2423
1038.35	0.240535
1037.87	0.240317
1037.39	0.241271
1036.9	0.241907
1036.42	0.24257
1035.94	0.244098
1035.46	0.245617
1034.97	0.246125
1034.49	0.246495
1034.01	0.247681
1033.53	0.248516
1033.05	0.247514
1032.56	0.245572
1032.08	0.244805
1031.6	0.245741
1031.12	0.247306
1030.63	0.248417
1030.15	0.248228
1029.67	0.24632
1029.19	0.243996
1028.71	0.243691
1028.22	0.245729
1027.74	0.247412
1027.26	0.247008
1026.78	0.246515
1026.29	0.24822
1025.81	0.250843
1025.33	0.251965
1024.85	0.2522
1024.36	0.253547
1023.88	0.255315
1023.4	0.255622
1022.92	0.255888
1022.44	0.259297
1021.95	0.265175
1021.47	0.269362
1020.99	0.270829
1020.51	0.273206
1020.02	0.278337
1019.54	0.283208
1019.06	0.285585
1018.58	0.288236
1018.09	0.294097
1017.61	0.301056
1017.13	0.30605
1016.65	0.311072
1016.17	0.319675
1015.68	0.329616
1015.2	0.335213
1014.72	0.336827
1014.24	0.341115
1013.75	0.350661
1013.27	0.35984
1012.79	0.363713
1012.31	0.365583
1011.83	0.370784
1011.34	0.377747
1010.86	0.381082
1010.38	0.380549
1009.9	0.380725
1009.41	0.383181
1008.93	0.385004
1008.45	0.38469
1007.97	0.384184
1007.48	0.384448
1007	0.383826
1006.52	0.381888
1006.04	0.380788
1005.56	0.381515
1005.07	0.382353
1004.59	0.382351
1004.11	0.383082
1003.63	0.385394
1003.14	0.387326
1002.66	0.387062
1002.18	0.385597
1001.7	0.384662
1001.22	0.384087
1000.73	0.382651
1000.25	0.379908
999.768	0.376065
999.286	0.371464
998.804	0.366897
998.321	0.362863
997.839	0.358123
997.357	0.350899
996.875	0.341871
996.392	0.333832
995.91	0.328007
995.428	0.322897
994.946	0.3172
994.463	0.311478
993.981	0.30612
993.499	0.300145
993.016	0.293441
992.534	0.287937
992.052	0.284762
991.57	0.281919
991.087	0.276907
990.605	0.270409
990.123	0.265231
989.64	0.262373
989.158	0.2602
988.676	0.25726
988.194	0.253955
987.711	0.251261
987.229	0.249289
986.747	0.247673
986.264	0.246195
985.782	0.244398
985.3	0.241509
984.818	0.237599
984.335	0.234322
983.853	0.23347
983.371	0.234592
982.888	0.234992
982.406	0.232726
981.924	0.229076
981.442	0.226922
980.959	0.22693
980.477	0.226938
979.995	0.225206
979.513	0.222822
979.03	0.221826
978.548	0.22234
978.066	0.222991
977.583	0.223072
977.101	0.222832
976.619	0.222298
976.137	0.221245
975.654	0.2199
975.172	0.218531
974.69	0.217026
974.207	0.215808
973.725	0.215972
973.243	0.217281
972.761	0.21749
972.278	0.215345
971.796	0.212846
971.314	0.212443
970.831	0.213481
970.349	0.213777
969.867	0.213343
969.385	0.213517
968.902	0.213574
968.42	0.211771
967.938	0.209081
967.455	0.208166
966.973	0.208865
966.491	0.208588
966.009	0.207326
965.526	0.207983
965.044	0.211057
964.562	0.213046
964.08	0.211874
963.597	0.209958
963.115	0.209833
962.633	0.210447
962.15	0.20995
961.668	0.20903
961.186	0.208877
960.704	0.208507
960.221	0.206867
959.739	0.20541
959.257	0.205896
958.774	0.207323
958.292	0.207484
957.81	0.206316
957.328	0.205257
956.845	0.204653
956.363	0.204043
955.881	0.203925
955.398	0.205032
954.916	0.206597
954.434	0.207266
953.952	0.207032
953.469	0.206656
952.987	0.206043
952.505	0.204746
952.023	0.203328
951.54	0.202683
951.058	0.202638
950.576	0.2025
950.093	0.202357
949.611	0.202606
949.129	0.202846
948.647	0.202441
948.164	0.201662
947.682	0.201226
947.2	0.201193
946.717	0.20101
946.235	0.200301
945.753	0.199282
945.271	0.198949
944.788	0.200598
944.306	0.204
943.824	0.206397
943.341	0.205315
942.859	0.202374
942.377	0.201524
941.895	0.203328
941.412	0.204101
940.93	0.201745
940.448	0.199243
939.965	0.199947
939.483	0.202468
939.001	0.203268
938.519	0.202105
938.036	0.201532
937.554	0.20216
937.072	0.202122
936.59	0.200888
936.107	0.200193
935.625	0.200892
935.143	0.201626
934.66	0.201309
934.178	0.200747
933.696	0.200834
933.214	0.200951
932.731	0.200217
932.249	0.19907
931.767	0.198678
931.284	0.199401
930.802	0.200598
930.32	0.201424
929.838	0.20141
929.355	0.200697
928.873	0.199812
928.391	0.199067
927.908	0.198449
927.426	0.198322
926.944	0.199449
926.462	0.201546
925.979	0.202563
925.497	0.200961
925.015	0.198289
924.532	0.197666
924.05	0.199683
923.568	0.201465
923.086	0.200513
922.603	0.198051
922.121	0.197191
921.639	0.198807
921.157	0.201052
920.674	0.202138
920.192	0.201933
919.71	0.200947
919.227	0.199445
918.745	0.198243
918.263	0.198714
917.781	0.200761
917.298	0.202055
916.816	0.200739
916.334	0.198205
915.851	0.197422
915.369	0.199058
914.887	0.201186
914.405	0.202311
913.922	0.202735
913.44	0.20277
912.958	0.201893
912.475	0.200505
911.993	0.20033
911.511	0.201783
911.029	0.202765
910.546	0.201783
910.064	0.200653
909.582	0.201754
909.1	0.203841
908.617	0.203125
908.135	0.198719
907.653	0.194461
907.17	0.1943
906.688	0.197467
906.206	0.199709
905.724	0.198732
905.241	0.196615
904.759	0.196591
904.277	0.198507
903.794	0.199272
903.312	0.19758
902.83	0.196019
902.348	0.197365
901.865	0.200345
901.383	0.20142
900.901	0.199974
900.418	0.198974
899.936	0.200149
899.454	0.201512
898.972	0.20075
898.489	0.198931
898.007	0.198721
897.525	0.200408
897.042	0.201765
896.56	0.201096
896.078	0.198933
895.596	0.196916
895.113	0.196266
894.631	0.197129
894.149	0.198571
893.667	0.199331
893.184	0.199057
892.702	0.198633
892.22	0.198976
891.737	0.20003
891.255	0.201063
890.773	0.201283
890.291	0.200241
889.808	0.198479
889.326	0.19767
888.844	0.198943
888.361	0.201059
887.879	0.201509
887.397	0.199554
886.915	0.197233
886.432	0.196839
885.95	0.198549
885.468	0.200905
884.985	0.202345
884.503	0.202184
884.021	0.201105
883.539	0.200624
883.056	0.201302
882.574	0.20203
882.092	0.202003
881.609	0.202289
881.127	0.203923
880.645	0.205585
880.163	0.205479
879.68	0.204438
879.198	0.204492
878.716	0.205306
878.234	0.204948
877.751	0.203665
877.269	0.203539
876.787	0.204553
876.304	0.204495
875.822	0.202793
875.34	0.201205
874.858	0.200727
874.375	0.201041
873.893	0.20285
873.411	0.206723
872.928	0.209732
872.446	0.207921
871.964	0.20295
871.482	0.200903
870.999	0.203294
870.517	0.205089
870.035	0.203283
869.552	0.201688
869.07	0.204096
868.588	0.207637
868.106	0.207651
867.623	0.205058
867.141	0.204057
866.659	0.205756
866.177	0.208146
865.694	0.210023
865.212	0.21105
864.73	0.210164
864.247	0.207669
863.765	0.206843
863.283	0.209882
862.801	0.214053
862.318	0.215527
861.836	0.214843
861.354	0.214679
860.871	0.214809
860.389	0.213474
859.907	0.211984
859.425	0.213149
858.942	0.216218
858.46	0.217929
857.978	0.217913
857.495	0.218753
857.013	0.220837
856.531	0.221655
856.049	0.220915
855.566	0.221786
855.084	0.225736
854.602	0.229736
854.119	0.230779
853.637	0.230559
853.155	0.232701
852.673	0.237259
852.19	0.24087
851.708	0.241935
851.226	0.243143
850.744	0.247515
850.261	0.253824
849.779	0.258169
849.297	0.259696
848.814	0.262256
848.332	0.268981
847.85	0.277872
847.368	0.285226
846.885	0.291399
846.403	0.299438
845.921	0.309142
845.438	0.316912
844.956	0.32189
844.474	0.327617
843.992	0.336105
843.509	0.345316
843.027	0.353905
842.545	0.363543
842.062	0.373799
841.58	0.379798
841.098	0.379296
840.616	0.377294
840.133	0.378911
839.651	0.381453
839.169	0.378528
838.686	0.369853
838.204	0.360692
837.722	0.353584
837.24	0.346535
836.757	0.338145
836.275	0.329997
835.793	0.3235
835.311	0.317769
834.828	0.311394
834.346	0.304109
833.864	0.296262
833.381	0.288339
832.899	0.281307
832.417	0.276175
831.935	0.272969
831.452	0.270565
830.97	0.26741
830.488	0.26274
830.005	0.257707
829.523	0.254868
829.041	0.255513
828.559	0.25742
828.076	0.256751
827.594	0.252591
827.112	0.247916
826.629	0.245524
826.147	0.244893
825.665	0.244055
825.183	0.2427
824.7	0.24201
824.218	0.242496
823.736	0.24331
823.254	0.243411
822.771	0.242507
822.289	0.2411
821.807	0.240098
821.324	0.240094
820.842	0.240971
820.36	0.242425
819.878	0.244319
819.395	0.246253
818.913	0.247796
818.431	0.249601
817.948	0.252684
817.466	0.255991
816.984	0.256869
816.502	0.255199
816.019	0.254665
815.537	0.257872
815.055	0.262288
814.572	0.264256
814.09	0.2644
813.608	0.265666
813.126	0.26841
812.643	0.270737
812.161	0.27208
811.679	0.272641
811.196	0.271329
810.714	0.268258
810.232	0.266781
809.75	0.268634
809.267	0.269366
808.785	0.264174
808.303	0.256225
807.821	0.252321
807.338	0.252831
806.856	0.252207
806.374	0.248615
805.891	0.245702
805.409	0.244503
804.927	0.241647
804.445	0.236871
803.962	0.234597
803.48	0.235629
802.998	0.234668
802.515	0.22987
802.033	0.226781
801.551	0.228605
801.069	0.229814
800.586	0.225185
800.104	0.219472
799.622	0.219703
799.139	0.223719
798.657	0.224164
798.175	0.220224
797.693	0.217432
797.21	0.217269
796.728	0.215992
796.246	0.213213
795.763	0.212855
795.281	0.214992
794.799	0.214536
794.317	0.210705
793.834	0.209905
793.352	0.214953
792.87	0.219084
792.388	0.215361
791.905	0.207644
791.423	0.205482
790.941	0.21024
790.458	0.214177
789.976	0.212007
789.494	0.207095
789.012	0.205176
788.529	0.206692
788.047	0.20808
787.565	0.207699
787.082	0.207272
786.6	0.20864
786.118	0.211349
785.636	0.212913
785.153	0.211056
784.671	0.206324
784.189	0.202461
783.706	0.203283
783.224	0.208068
782.742	0.21145
782.26	0.210021
781.777	0.206758
781.295	0.206375
780.813	0.208845
780.331	0.210302
779.848	0.209157
779.366	0.207715
778.884	0.207374
778.401	0.206757
777.919	0.20564
777.437	0.206434
776.955	0.209522
776.472	0.210853
775.99	0.208041
775.508	0.205495
775.025	0.208535
774.543	0.215003
774.061	0.217246
773.579	0.212877
773.096	0.208268
772.614	0.208682
772.132	0.211037
771.649	0.209424
771.167	0.204406
770.685	0.202175
770.203	0.205316
769.72	0.209404
769.238	0.209891
768.756	0.208086
768.273	0.20806
767.791	0.210149
767.309	0.210847
766.827	0.208917
766.344	0.207551
765.862	0.209624
765.38	0.213182
764.898	0.213485
764.415	0.209233
763.933	0.204475
763.451	0.204018
762.968	0.208626
762.486	0.214369
762.004	0.216185
761.522	0.213052
761.039	0.209219
760.557	0.209275
760.075	0.212456
759.592	0.213722
759.11	0.211198
758.628	0.209573
758.146	0.213332
757.663	0.21933
757.181	0.220726
756.699	0.216564
756.216	0.213232
755.734	0.21556
755.252	0.220672
754.77	0.223291
754.287	0.222924
753.805	0.222966
753.323	0.225154
752.84	0.227934
752.358	0.229573
751.876	0.230349
751.394	0.231184
750.911	0.231806
750.429	0.231167
749.947	0.229672
749.465	0.230344
748.982	0.2361
748.5	0.245126
748.018	0.250762
747.535	0.248669
747.053	0.243196
746.571	0.242758
746.089	0.248661
745.606	0.253557
745.124	0.25143
744.642	0.244403
744.159	0.238484
743.677	0.235869
743.195	0.234548
742.713	0.232659
742.23	0.22976
741.748	0.226179
741.266	0.223736
740.783	0.224612
740.301	0.227073
739.819	0.225779
739.337	0.218946
738.854	0.211791
738.372	0.209815
737.89	0.211185
737.408	0.210671
736.925	0.208702
736.443	0.209992
735.961	0.214933
735.478	0.218208
734.996	0.216433
734.514	0.212343
734.032	0.209448
733.549	0.207714
733.067	0.206304
732.585	0.20577
732.102	0.205737
731.62	0.204511
731.138	0.202949
730.656	0.204363
730.173	0.208606
729.691	0.210292
729.209	0.206198
728.726	0.200586
728.244	0.198576
727.762	0.199069
727.28	0.198708
726.797	0.198849
726.315	0.20284
725.833	0.208276
725.35	0.208902
724.868	0.204034
724.386	0.199633
723.904	0.199779
723.421	0.202158
722.939	0.203285
722.457	0.203392
721.975	0.204017
721.492	0.204709
721.01	0.204475
720.528	0.203524
720.045	0.202565
719.563	0.20202
719.081	0.202295
718.599	0.202971
718.116	0.202036
717.634	0.198789
717.152	0.196879
716.669	0.19926
716.187	0.20248
715.705	0.201307
715.223	0.198169
714.74	0.199687
714.258	0.20455
713.776	0.203973
713.293	0.197276
712.811	0.19481
712.329	0.200946
711.847	0.206173
711.364	0.201977
710.882	0.195584
710.4	0.196978
709.917	0.201852
709.435	0.19988
708.953	0.193141
708.471	0.192174
707.988	0.19748
707.506	0.198685
707.024	0.193053
706.542	0.189447
706.059	0.193239
705.577	0.198432
705.095	0.198284
704.612	0.194749
704.13	0.192843
703.648	0.193963
703.166	0.197313
702.683	0.201243
702.201	0.201754
701.719	0.196963
701.236	0.192883
700.754	0.19577
700.272	0.201044
699.79	0.199343
699.307	0.192753
698.825	0.193265
698.343	0.202153
697.86	0.206213
697.378	0.198991
696.896	0.191232
696.414	0.193721
695.931	0.200096
695.449	0.198533
694.967	0.190901
694.485	0.188336
694.002	0.193693
693.52	0.199332
693.038	0.199326
692.555	0.196272
692.073	0.195286
691.591	0.19766
691.109	0.201546
690.626	0.203337
690.144	0.200534
689.662	0.195849
689.179	0.194339
688.697	0.196432
688.215	0.198048
687.733	0.197518
687.25	0.197287
686.768	0.19776
686.286	0.195946
685.803	0.192433
685.321	0.192059
684.839	0.195759
684.357	0.197814
683.874	0.196029
683.392	0.19674
682.91	0.203427
682.427	0.209122
681.945	0.206296
681.463	0.197578
680.981	0.192409
680.498	0.194146
680.016	0.197773
679.534	0.199202
679.052	0.198803
678.569	0.197668
678.087	0.195437
677.605	0.192368
677.122	0.190723
676.64	0.192329
676.158	0.196206
675.676	0.198935
675.193	0.197844
674.711	0.195228
674.229	0.195547
673.746	0.198085
673.264	0.197594
672.782	0.193888
672.3	0.192931
671.817	0.196034
671.335	0.195638
670.853	0.189426
670.37	0.187812
669.888	0.200196
669.406	0.218971
668.924	0.227615
668.441	0.210964
667.959	0.168484
667.477	0.157213
666.994	0.187829
666.512	0.187652
666.03	0.188838
665.548	0.196006
665.065	0.203967
664.583	0.204862
664.101	0.201421
663.619	0.197959
663.136	0.194486
662.654	0.191942
662.172	0.193022
661.689	0.19712
661.207	0.201057
660.725	0.204347
660.243	0.207227
659.76	0.204907
659.278	0.195051
658.796	0.188084
658.313	0.19423
657.831	0.206626
657.349	0.209403
656.867	0.201667
656.384	0.197299
655.902	0.200135
655.42	0.200821
654.937	0.197048
654.455	0.197194
653.973	0.201432
653.491	0.199982
653.008	0.193018
652.526	0.191702
652.044	0.197992
651.562	0.200605
651.079	0.195424
650.597	0.191708
650.115	0.19262
649.632	0.1904
649.15	0.184686
648.668	0.186365
648.186	0.196254
647.703	0.201107
647.221	0.197288
646.739	0.196181
646.256	0.201751
645.774	0.20296
645.292	0.194967
644.81	0.189346
644.327	0.192492
643.845	0.194939
643.363	0.190327
642.88	0.187625
642.398	0.192972
641.916	0.197552
641.434	0.193533
640.951	0.187276
640.469	0.186294
639.987	0.188836
639.504	0.192647
639.022	0.199305
638.54	0.203811
638.058	0.1974
637.575	0.185885
637.093	0.185872
636.611	0.196007
636.129	0.195551
635.646	0.180566
635.164	0.174933
634.682	0.191067
634.199	0.207039
633.717	0.202402
633.235	0.190831
632.753	0.195749
632.27	0.210759
631.788	0.210923
631.306	0.194426
630.823	0.183096
630.341	0.187799
629.859	0.196361
629.377	0.198053
628.894	0.199824
628.412	0.210766
627.93	0.223833
627.447	0.224017
626.965	0.210934
626.483	0.201671
626.001	0.208747
625.518	0.221261
625.036	0.217702
624.554	0.197934
624.071	0.187046
623.589	0.199169
623.107	0.214369
622.625	0.208856
622.142	0.192285
621.66	0.192158
621.178	0.209236
620.696	0.217873
620.213	0.206793
619.731	0.193415
619.249	0.19224
618.766	0.196865
618.284	0.201022
617.802	0.208746
617.32	0.21714
616.837	0.213684
616.355	0.19959
615.873	0.190034
615.39	0.19436
614.908	0.204193
614.426	0.209637
613.944	0.211192
613.461	0.210121
612.979	0.20499
612.497	0.198917
612.014	0.196698
611.532	0.195172
611.05	0.187808
610.568	0.178712
610.085	0.17636
609.603	0.179708
609.121	0.18115
608.639	0.180828
608.156	0.184468
607.674	0.19154
607.192	0.199224
606.709	0.210917
606.227	0.225467
605.745	0.227132
605.263	0.207002
604.78	0.183774
604.298	0.180017
603.816	0.190531
603.333	0.19293
602.851	0.184106
602.369	0.180663
601.887	0.186443
601.404	0.188285
600.922	0.183395
600.44	0.182823
599.957	0.187376
599.475	0.185658
598.993	0.178387
598.511	0.179073
598.028	0.188747
597.546	0.193297
597.064	0.19
596.581	0.190409
596.099	0.194762
595.617	0.191299
595.135	0.183472
594.652	0.188723
594.17	0.203265
593.688	0.200392
593.206	0.17571
592.723	0.16025
592.241	0.178428
591.759	0.217366
591.276	0.240276
590.794	0.234732
590.312	0.216556
589.83	0.198262
589.347	0.186029
588.865	0.183901
588.383	0.186495
587.9	0.182357
587.418	0.173377
586.936	0.176695
586.454	0.197379
585.971	0.215539
585.489	0.211742
585.007	0.195147
584.524	0.187637
584.042	0.19171
583.56	0.190101
583.078	0.174955
582.595	0.160718
582.113	0.170671
581.631	0.209023
581.148	0.242775
580.666	0.239448
580.184	0.207309
579.702	0.185007
579.219	0.192373
578.737	0.207072
578.255	0.202998
577.773	0.18715
577.29	0.181747
576.808	0.185718
576.326	0.184145
575.843	0.17719
575.361	0.176944
574.879	0.180003
574.397	0.179287
573.914	0.180881
573.432	0.188584
572.95	0.186613
572.467	0.16702
571.985	0.152747
571.503	0.168922
571.021	0.198274
570.538	0.206352
570.056	0.194329
569.574	0.186991
569.091	0.188796
568.609	0.186441
568.127	0.182964
567.645	0.190737
567.162	0.200158
566.68	0.194407
566.198	0.189363
565.716	0.209824
565.233	0.239433
564.751	0.24102
564.269	0.214531
563.786	0.200413
563.304	0.212277
562.822	0.217529
562.34	0.200295
561.857	0.185282
561.375	0.190698
560.893	0.200078
560.41	0.196184
559.928	0.194383
559.446	0.212155
558.964	0.234151
558.481	0.23513
557.999	0.215997
557.517	0.195987
557.034	0.185175
556.552	0.183089
556.07	0.191377
555.588	0.207993
555.105	0.215656
554.623	0.197884
554.141	0.176034
553.658	0.181873
553.176	0.21058
552.694	0.22602
552.212	0.206589
551.729	0.182473
551.247	0.191162
550.765	0.22115
550.283	0.224783
549.8	0.19827
549.318	0.184713
548.836	0.207122
548.353	0.234217
547.871	0.22902
547.389	0.209047
546.907	0.210209
546.424	0.232823
545.942	0.240436
545.46	0.221888
544.977	0.203465
544.495	0.200115
544.013	0.203959
543.531	0.208332
543.048	0.215247
542.566	0.22204
542.084	0.225073
541.601	0.230478
541.119	0.237117
540.637	0.22479
540.155	0.191289
539.672	0.175084
539.19	0.206354
538.708	0.239858
538.225	0.216874
537.743	0.172262
537.261	0.18315
536.779	0.253298
536.296	0.287078
535.814	0.237043
535.332	0.175848
534.85	0.180199
534.367	0.233955
533.885	0.259358
533.403	0.226185
532.92	0.175575
532.438	0.157665
531.956	0.192211
531.474	0.256131
530.991	0.278129
530.509	0.220312
530.027	0.171791
529.544	0.21259
529.062	0.298787
528.58	0.319615
528.098	0.255053
527.615	0.212854
527.133	0.219153
526.651	0.183407
526.168	0.0707924
525.686	0
525.204	0.0555503
524.722	0.147059
524.239	0.174129
523.757	0.161314
523.275	0.16487
522.792	0.169918
522.31	0.173882
521.828	0.227449
521.346	0.288675
520.863	0.355622
520.381	0.268865
519.899	0.18133
519.417	0.197709
518.934	0.196361
518.452	0.14671
517.97	0.111981
517.487	0.124628
517.005	0.19881
516.523	0.272311
516.041	0.211524
515.558	0.179099
515.076	0.240234
514.594	0.199695
514.111	0.149114
513.629	0.191608
513.147	0.173972
512.665	0.192646
512.182	0.257294
511.7	0.296459
511.218	0.145053
510.735	0.173089
510.253	0.241767
509.771	0.28692
509.289	0.147564
508.806	0.0565714
508.324	0.153077
507.842	0.117279
507.36	0.100587
506.877	0.0838094
506.395	0.109954
505.913	0.250583
505.43	0.273504
504.948	0.183185
504.466	0.173508
503.984	0.28444
503.501	0.355044
503.019	0.185103
502.537	0.117411
502.054	0.215512
501.572	0.267699
501.09	0.120674
500.608	0.0422545
500.125	0.226706
499.643	0.478156
