##TITLE=нпво 3.2 1 без апод
##$NOTE=17.03.2022 16:33:1 ^0 x10 v:1 [Без приставки]
##$ITAB=-1,-1
##FIRSTX=5000.29
##DELTAX=-0.482281
##NPOINTS=9333
##XUNITS=1/CM
##YUNITS=ABSORBANCE
5000.29	0.207546
4999.81	0.247768
4999.32	0.223075
4998.84	0.168702
4998.36	0.162406
4997.88	0.182847
4997.39	0.163196
4996.91	0.123314
4996.43	0.127766
4995.95	0.182547
4995.47	0.218514
4994.98	0.213881
4994.5	0.21463
4994.02	0.227819
4993.54	0.199937
4993.05	0.132519
4992.57	0.0963183
4992.09	0.109545
4991.61	0.148601
4991.13	0.187602
4990.64	0.211601
4990.16	0.203704
4989.68	0.155331
4989.2	0.0971879
4988.71	0.0650596
4988.23	0.0573315
4987.75	0.0633917
4987.27	0.103623
4986.78	0.177235
4986.3	0.229803
4985.82	0.207875
4985.34	0.158777
4984.86	0.200266
4984.37	0.298652
4983.89	0.303604
4983.41	0.197351
4982.93	0.11523
4982.44	0.139777
4981.96	0.203271
4981.48	0.183519
4981	0.129662
4980.51	0.128421
4980.03	0.172761
4979.55	0.185004
4979.07	0.159286
4978.59	0.159012
4978.1	0.187405
4977.62	0.197648
4977.14	0.181281
4976.66	0.171698
4976.17	0.175504
4975.69	0.171705
4975.21	0.168372
4974.73	0.187411
4974.25	0.219682
4973.76	0.216651
4973.28	0.170836
4972.8	0.125874
4972.32	0.0950298
4971.83	0.0856373
4971.35	0.112608
4970.87	0.16964
4970.39	0.219091
4969.9	0.216473
4969.42	0.185309
4968.94	0.164221
4968.46	0.136796
4967.98	0.0871104
4967.49	0.0641718
4967.01	0.11532
4966.53	0.191918
4966.05	0.217902
4965.56	0.183305
4965.08	0.149321
4964.6	0.15336
4964.12	0.168909
4963.64	0.162511
4963.15	0.140169
4962.67	0.133528
4962.19	0.161566
4961.71	0.210518
4961.22	0.241777
4960.74	0.210416
4960.26	0.140725
4959.78	0.118511
4959.29	0.178018
4958.81	0.267836
4958.33	0.270212
4957.85	0.1806
4957.37	0.116892
4956.88	0.128657
4956.4	0.182138
4955.92	0.20493
4955.44	0.172564
4954.95	0.136737
4954.47	0.139398
4953.99	0.170662
4953.51	0.184952
4953.02	0.137151
4952.54	0.0770556
4952.06	0.0839334
4951.58	0.151341
4951.1	0.214168
4950.61	0.20019
4950.13	0.15492
4949.65	0.172475
4949.17	0.241051
4948.68	0.248045
4948.2	0.151343
4947.72	0.0665268
4947.24	0.093905
4946.76	0.200987
4946.27	0.266149
4945.79	0.247195
4945.31	0.196534
4944.83	0.159842
4944.34	0.144831
4943.86	0.155347
4943.38	0.197805
4942.9	0.229839
4942.41	0.184321
4941.93	0.0887655
4941.45	0.0425937
4940.97	0.10232
4940.49	0.173833
4940	0.148862
4939.52	0.0822928
4939.04	0.103749
4938.56	0.235539
4938.07	0.32456
4937.59	0.254571
4937.11	0.135292
4936.63	0.11445
4936.15	0.182089
4935.66	0.215393
4935.18	0.168958
4934.7	0.122457
4934.22	0.124061
4933.73	0.129636
4933.25	0.112336
4932.77	0.12099
4932.29	0.181508
4931.8	0.22742
4931.32	0.19081
4930.84	0.130949
4930.36	0.156131
4929.88	0.24612
4929.39	0.286105
4928.91	0.248883
4928.43	0.209607
4927.95	0.215361
4927.46	0.232214
4926.98	0.198857
4926.5	0.137749
4926.02	0.115849
4925.53	0.146878
4925.05	0.202083
4924.57	0.238887
4924.09	0.216142
4923.61	0.156058
4923.12	0.137387
4922.64	0.169686
4922.16	0.19751
4921.68	0.168691
4921.19	0.123394
4920.71	0.166393
4920.23	0.281208
4919.75	0.346541
4919.27	0.273157
4918.78	0.160845
4918.3	0.145558
4917.82	0.211158
4917.34	0.236041
4916.85	0.163495
4916.37	0.097972
4915.89	0.119029
4915.41	0.185513
4914.92	0.191849
4914.44	0.126104
4913.96	0.0914879
4913.48	0.145635
4913	0.232835
4912.51	0.245193
4912.03	0.162524
4911.55	0.0804401
4911.07	0.0931748
4910.58	0.161975
4910.1	0.19733
4909.62	0.181075
4909.14	0.16428
4908.66	0.180219
4908.17	0.181222
4907.69	0.126521
4907.21	0.0752531
4906.73	0.11751
4906.24	0.228498
4905.76	0.287484
4905.28	0.224463
4904.8	0.149199
4904.31	0.150695
4903.83	0.202273
4903.35	0.222427
4902.87	0.192994
4902.39	0.188157
4901.9	0.218145
4901.42	0.218172
4900.94	0.147332
4900.46	0.0959857
4899.97	0.124309
4899.49	0.197487
4899.01	0.237988
4898.53	0.204023
4898.04	0.146058
4897.56	0.111918
4897.08	0.111555
4896.6	0.139407
4896.12	0.178968
4895.63	0.196449
4895.15	0.160312
4894.67	0.101328
4894.19	0.0902177
4893.7	0.138343
4893.22	0.187502
4892.74	0.181802
4892.26	0.15112
4891.78	0.163866
4891.29	0.216013
4890.81	0.243793
4890.33	0.196408
4889.85	0.116775
4889.36	0.0893656
4888.88	0.125519
4888.4	0.189737
4887.92	0.236825
4887.43	0.236702
4886.95	0.204029
4886.47	0.169726
4885.99	0.16127
4885.51	0.184147
4885.02	0.204597
4884.54	0.195608
4884.06	0.177859
4883.58	0.17539
4883.09	0.174504
4882.61	0.161004
4882.13	0.161275
4881.65	0.195629
4881.17	0.222192
4880.68	0.191184
4880.2	0.140667
4879.72	0.159962
4879.24	0.228803
4878.75	0.241452
4878.27	0.170609
4877.79	0.116592
4877.31	0.153057
4876.82	0.242079
4876.34	0.279013
4875.86	0.238057
4875.38	0.20693
4874.9	0.225118
4874.41	0.256831
4873.93	0.244861
4873.45	0.180255
4872.97	0.105247
4872.48	0.0741002
4872	0.112598
4871.52	0.17773
4871.04	0.202566
4870.55	0.184425
4870.07	0.178977
4869.59	0.202828
4869.11	0.206187
4868.63	0.175708
4868.14	0.16928
4867.66	0.202403
4867.18	0.204807
4866.7	0.129865
4866.21	0.0587636
4865.73	0.0718591
4865.25	0.145111
4864.77	0.177257
4864.29	0.136452
4863.8	0.102037
4863.32	0.129924
4862.84	0.192774
4862.36	0.232513
4861.87	0.237186
4861.39	0.22309
4860.91	0.204246
4860.43	0.187823
4859.94	0.170843
4859.46	0.151824
4858.98	0.146419
4858.5	0.161624
4858.02	0.16851
4857.53	0.13314
4857.05	0.0870074
4856.57	0.103444
4856.09	0.165564
4855.6	0.19326
4855.12	0.147452
4854.64	0.0985137
4854.16	0.109215
4853.68	0.157401
4853.19	0.186371
4852.71	0.192625
4852.23	0.199868
4851.75	0.17724
4851.26	0.101034
4850.78	0.0534652
4850.3	0.0806377
4849.82	0.128379
4849.33	0.125515
4848.85	0.081827
4848.37	0.0730301
4847.89	0.122293
4847.41	0.188975
4846.92	0.22948
4846.44	0.245809
4845.96	0.2343
4845.48	0.190111
4844.99	0.163573
4844.51	0.191673
4844.03	0.222406
4843.55	0.178962
4843.06	0.120287
4842.58	0.138945
4842.1	0.216228
4841.62	0.224387
4841.14	0.132225
4840.65	0.0781857
4840.17	0.111153
4839.69	0.178694
4839.21	0.192756
4838.72	0.190976
4838.24	0.245355
4837.76	0.306715
4837.28	0.2539
4836.8	0.135201
4836.31	0.0723228
4835.83	0.100698
4835.35	0.163922
4834.87	0.176821
4834.38	0.141546
4833.9	0.114782
4833.42	0.142853
4832.94	0.19961
4832.45	0.221369
4831.97	0.195959
4831.49	0.16117
4831.01	0.156383
4830.53	0.171385
4830.04	0.17443
4829.56	0.174937
4829.08	0.207764
4828.6	0.262842
4828.11	0.276908
4827.63	0.235424
4827.15	0.197404
4826.67	0.199198
4826.19	0.21818
4825.7	0.219369
4825.22	0.205207
4824.74	0.188537
4824.26	0.16844
4823.77	0.150327
4823.29	0.149525
4822.81	0.161412
4822.33	0.164325
4821.84	0.15439
4821.36	0.147207
4820.88	0.146392
4820.4	0.142728
4819.92	0.147012
4819.43	0.174898
4818.95	0.202417
4818.47	0.183115
4817.99	0.135764
4817.5	0.132004
4817.02	0.188384
4816.54	0.221267
4816.06	0.152395
4815.57	0.0630473
4815.09	0.0565435
4814.61	0.137079
4814.13	0.205372
4813.65	0.191217
4813.16	0.141515
4812.68	0.123345
4812.2	0.145708
4811.72	0.173509
4811.23	0.184406
4810.75	0.1804
4810.27	0.176282
4809.79	0.183389
4809.31	0.199167
4808.82	0.207136
4808.34	0.188127
4807.86	0.150438
4807.38	0.123115
4806.89	0.127284
4806.41	0.163124
4805.93	0.206424
4805.45	0.223153
4804.96	0.196475
4804.48	0.167593
4804	0.194944
4803.52	0.269886
4803.04	0.328785
4802.55	0.311613
4802.07	0.25504
4801.59	0.244093
4801.11	0.271253
4800.62	0.245451
4800.14	0.153938
4799.66	0.0920991
4799.18	0.127499
4798.69	0.220447
4798.21	0.251643
4797.73	0.196416
4797.25	0.143484
4796.77	0.141015
4796.28	0.16525
4795.8	0.175189
4795.32	0.172411
4794.84	0.171102
4794.35	0.15734
4793.87	0.133262
4793.39	0.139839
4792.91	0.194058
4792.43	0.226321
4791.94	0.168418
4791.46	0.0993927
4790.98	0.128724
4790.5	0.251271
4790.01	0.324
4789.53	0.238146
4789.05	0.12109
4788.57	0.104141
4788.08	0.167328
4787.6	0.190039
4787.12	0.144814
4786.64	0.11247
4786.16	0.131169
4785.67	0.1519
4785.19	0.1283
4784.71	0.113477
4784.23	0.152301
4783.74	0.196066
4783.26	0.186516
4782.78	0.157964
4782.3	0.186969
4781.82	0.259461
4781.33	0.269002
4780.85	0.188557
4780.37	0.118353
4779.89	0.140171
4779.4	0.203688
4778.92	0.205363
4778.44	0.136582
4777.96	0.0842065
4777.47	0.101953
4776.99	0.146617
4776.51	0.162869
4776.03	0.156019
4775.55	0.15101
4775.06	0.141612
4774.58	0.120064
4774.1	0.111894
4773.62	0.133352
4773.13	0.152505
4772.65	0.149742
4772.17	0.152879
4771.69	0.18781
4771.2	0.216027
4770.72	0.186241
4770.24	0.118163
4769.76	0.0756254
4769.28	0.0845543
4768.79	0.116181
4768.31	0.138465
4767.83	0.141965
4767.35	0.12782
4766.86	0.108768
4766.38	0.116481
4765.9	0.167163
4765.42	0.215348
4764.94	0.20839
4764.45	0.17293
4763.97	0.170689
4763.49	0.210616
4763.01	0.24428
4762.52	0.243942
4762.04	0.236479
4761.56	0.234173
4761.08	0.207908
4760.59	0.154024
4760.11	0.11586
4759.63	0.112748
4759.15	0.117296
4758.67	0.113794
4758.18	0.132689
4757.7	0.188592
4757.22	0.23865
4756.74	0.240099
4756.25	0.198603
4755.77	0.169015
4755.29	0.177711
4754.81	0.202192
4754.33	0.227631
4753.84	0.24607
4753.36	0.234673
4752.88	0.180995
4752.4	0.114382
4751.91	0.0903593
4751.43	0.138158
4750.95	0.225719
4750.47	0.277657
4749.98	0.240242
4749.5	0.167921
4749.02	0.117959
4748.54	0.0859646
4748.06	0.0692134
4747.57	0.0997925
4747.09	0.18176
4746.61	0.25255
4746.13	0.238055
4745.64	0.156496
4745.16	0.108375
4744.68	0.128526
4744.2	0.170883
4743.71	0.183229
4743.23	0.184869
4742.75	0.203471
4742.27	0.198284
4741.79	0.150341
4741.3	0.132703
4740.82	0.204957
4740.34	0.282325
4739.86	0.231591
4739.37	0.12546
4738.89	0.107579
4738.41	0.200785
4737.93	0.300844
4737.45	0.285499
4736.96	0.222775
4736.48	0.210744
4736	0.227763
4735.52	0.230728
4735.03	0.225537
4734.55	0.210913
4734.07	0.158351
4733.59	0.101753
4733.1	0.124222
4732.62	0.230321
4732.14	0.309697
4731.66	0.251219
4731.18	0.160965
4730.69	0.173583
4730.21	0.244584
4729.73	0.256399
4729.25	0.200806
4728.76	0.178351
4728.28	0.203589
4727.8	0.192661
4727.32	0.12183
4726.84	0.0685991
4726.35	0.081745
4725.87	0.122562
4725.39	0.135927
4724.91	0.136527
4724.42	0.156163
4723.94	0.171466
4723.46	0.151715
4722.98	0.128685
4722.49	0.1556
4722.01	0.212102
4721.53	0.219774
4721.05	0.150332
4720.57	0.086406
4720.08	0.0994925
4719.6	0.160771
4719.12	0.191353
4718.64	0.160253
4718.15	0.126146
4717.67	0.142489
4717.19	0.187353
4716.71	0.213188
4716.22	0.209335
4715.74	0.199522
4715.26	0.192634
4714.78	0.169292
4714.3	0.125823
4713.81	0.0902558
4713.33	0.0988325
4712.85	0.149827
4712.37	0.205529
4711.88	0.231389
4711.4	0.214467
4710.92	0.188233
4710.44	0.193785
4709.96	0.218276
4709.47	0.217434
4708.99	0.180112
4708.51	0.15393
4708.03	0.16697
4707.54	0.178824
4707.06	0.142865
4706.58	0.0906418
4706.1	0.0960048
4705.61	0.171632
4705.13	0.249473
4704.65	0.268244
4704.17	0.243237
4703.69	0.214967
4703.2	0.195532
4702.72	0.18138
4702.24	0.173503
4701.76	0.170986
4701.27	0.168866
4700.79	0.167325
4700.31	0.167696
4699.83	0.164027
4699.35	0.156
4698.86	0.155354
4698.38	0.163423
4697.9	0.16082
4697.42	0.14604
4696.93	0.149063
4696.45	0.178994
4695.97	0.191772
4695.49	0.161595
4695	0.124971
4694.52	0.128734
4694.04	0.159487
4693.56	0.170849
4693.08	0.176076
4692.59	0.206841
4692.11	0.221065
4691.63	0.173985
4691.15	0.121765
4690.66	0.133414
4690.18	0.19549
4689.7	0.201998
4689.22	0.146911
4688.73	0.126934
4688.25	0.179101
4687.77	0.216464
4687.29	0.184807
4686.81	0.154965
4686.32	0.181222
4685.84	0.217406
4685.36	0.21026
4684.88	0.19096
4684.39	0.19172
4683.91	0.174991
4683.43	0.12464
4682.95	0.105303
4682.47	0.155108
4681.98	0.221683
4681.5	0.217216
4681.02	0.157111
4680.54	0.121295
4680.05	0.125218
4679.57	0.139232
4679.09	0.157798
4678.61	0.187594
4678.12	0.206884
4677.64	0.204898
4677.16	0.209806
4676.68	0.239762
4676.2	0.240348
4675.71	0.182147
4675.23	0.130015
4674.75	0.153498
4674.27	0.212946
4673.78	0.20513
4673.3	0.118055
4672.82	0.0460376
4672.34	0.0762379
4671.86	0.173891
4671.37	0.247758
4670.89	0.243921
4670.41	0.177083
4669.93	0.113399
4669.44	0.111638
4668.96	0.173898
4668.48	0.223252
4668	0.199064
4667.51	0.157284
4667.03	0.160262
4666.55	0.17216
4666.07	0.139477
4665.59	0.103193
4665.1	0.141197
4664.62	0.228496
4664.14	0.258336
4663.66	0.209896
4663.17	0.171319
4662.69	0.178482
4662.21	0.176799
4661.73	0.146221
4661.24	0.140785
4660.76	0.17544
4660.28	0.182374
4659.8	0.146127
4659.32	0.140227
4658.83	0.20122
4658.35	0.258798
4657.87	0.227541
4657.39	0.16149
4656.9	0.154931
4656.42	0.18131
4655.94	0.168082
4655.46	0.122199
4654.98	0.115655
4654.49	0.159882
4654.01	0.197122
4653.53	0.198016
4653.05	0.193549
4652.56	0.204977
4652.08	0.20848
4651.6	0.183823
4651.12	0.147444
4650.63	0.126187
4650.15	0.131781
4649.67	0.161684
4649.19	0.199522
4648.71	0.218162
4648.22	0.207035
4647.74	0.192589
4647.26	0.196321
4646.78	0.195272
4646.29	0.166305
4645.81	0.14036
4645.33	0.161944
4644.85	0.212819
4644.37	0.211834
4643.88	0.142265
4643.4	0.0947579
4642.92	0.125622
4642.44	0.192853
4641.95	0.203038
4641.47	0.147032
4640.99	0.111686
4640.51	0.141117
4640.02	0.194807
4639.54	0.20825
4639.06	0.179911
4638.58	0.169217
4638.1	0.199521
4637.61	0.23991
4637.13	0.252453
4636.65	0.224452
4636.17	0.189074
4635.68	0.178539
4635.2	0.191583
4634.72	0.205021
4634.24	0.188934
4633.75	0.153535
4633.27	0.133637
4632.79	0.147335
4632.31	0.180527
4631.83	0.198304
4631.34	0.198239
4630.86	0.191446
4630.38	0.170243
4629.9	0.138688
4629.41	0.13568
4628.93	0.178271
4628.45	0.223342
4627.97	0.204319
4627.49	0.145349
4627	0.127741
4626.52	0.159478
4626.04	0.169909
4625.56	0.129928
4625.07	0.118012
4624.59	0.183472
4624.11	0.274732
4623.63	0.280379
4623.14	0.198864
4622.66	0.141309
4622.18	0.141157
4621.7	0.16327
4621.22	0.171353
4620.73	0.166635
4620.25	0.16233
4619.77	0.165779
4619.29	0.19136
4618.8	0.230721
4618.32	0.238257
4617.84	0.189502
4617.36	0.131569
4616.88	0.139602
4616.39	0.196144
4615.91	0.217912
4615.43	0.180742
4614.95	0.151394
4614.46	0.168428
4613.98	0.194494
4613.5	0.195652
4613.02	0.189898
4612.53	0.203174
4612.05	0.216959
4611.57	0.205469
4611.09	0.184832
4610.61	0.188845
4610.12	0.219425
4609.64	0.246706
4609.16	0.236969
4608.68	0.192713
4608.19	0.150526
4607.71	0.143066
4607.23	0.171506
4606.75	0.193296
4606.26	0.169977
4605.78	0.129141
4605.3	0.122989
4604.82	0.154457
4604.34	0.184264
4603.85	0.184967
4603.37	0.17275
4602.89	0.163177
4602.41	0.142028
4601.92	0.111553
4601.44	0.116577
4600.96	0.179123
4600.48	0.25033
4600	0.258112
4599.51	0.199466
4599.03	0.144498
4598.55	0.135264
4598.07	0.16422
4597.58	0.195743
4597.1	0.19591
4596.62	0.168228
4596.14	0.135662
4595.65	0.114566
4595.17	0.117556
4594.69	0.149893
4594.21	0.193622
4593.73	0.211491
4593.24	0.183499
4592.76	0.140515
4592.28	0.12665
4591.8	0.132957
4591.31	0.126353
4590.83	0.112918
4590.35	0.124901
4589.87	0.152597
4589.39	0.153773
4588.9	0.141604
4588.42	0.177903
4587.94	0.255499
4587.46	0.2824
4586.97	0.213514
4586.49	0.131455
4586.01	0.129855
4585.53	0.170852
4585.04	0.172784
4584.56	0.151592
4584.08	0.165002
4583.6	0.198871
4583.12	0.1925
4582.63	0.155576
4582.15	0.155381
4581.67	0.191235
4581.19	0.211925
4580.7	0.194721
4580.22	0.167002
4579.74	0.140788
4579.26	0.104839
4578.77	0.0886095
4578.29	0.132041
4577.81	0.191916
4577.33	0.182141
4576.85	0.10395
4576.36	0.0600233
4575.88	0.0948806
4575.4	0.151599
4574.92	0.172731
4574.43	0.156394
4573.95	0.132801
4573.47	0.113999
4572.99	0.105173
4572.51	0.113666
4572.02	0.12965
4571.54	0.141237
4571.06	0.158306
4570.58	0.178751
4570.09	0.164546
4569.61	0.103539
4569.13	0.0622361
4568.65	0.10649
4568.16	0.173749
4567.68	0.172733
4567.2	0.125025
4566.72	0.122539
4566.24	0.168871
4565.75	0.175839
4565.27	0.138702
4564.79	0.130255
4564.31	0.170449
4563.82	0.190645
4563.34	0.166739
4562.86	0.153167
4562.38	0.176303
4561.9	0.188481
4561.41	0.169766
4560.93	0.172683
4560.45	0.210522
4559.97	0.221279
4559.48	0.189901
4559	0.173244
4558.52	0.19255
4558.04	0.194698
4557.55	0.152359
4557.07	0.124722
4556.59	0.142803
4556.11	0.167997
4555.63	0.160929
4555.14	0.141976
4554.66	0.131393
4554.18	0.110395
4553.7	0.0890815
4553.21	0.115955
4552.73	0.184552
4552.25	0.223244
4551.77	0.196927
4551.28	0.168707
4550.8	0.186181
4550.32	0.19944
4549.84	0.15503
4549.36	0.103431
4548.87	0.110336
4548.39	0.166046
4547.91	0.214177
4547.43	0.216674
4546.94	0.17785
4546.46	0.116822
4545.98	0.0715447
4545.5	0.0871096
4545.02	0.144228
4544.53	0.17509
4544.05	0.163576
4543.57	0.163236
4543.09	0.20225
4542.6	0.22724
4542.12	0.203367
4541.64	0.169569
4541.16	0.154757
4540.67	0.137255
4540.19	0.111274
4539.71	0.113755
4539.23	0.150817
4538.75	0.173767
4538.26	0.159767
4537.78	0.158782
4537.3	0.199022
4536.82	0.228674
4536.33	0.207869
4535.85	0.173038
4535.37	0.160921
4534.89	0.148528
4534.41	0.123172
4533.92	0.134074
4533.44	0.205936
4532.96	0.260532
4532.48	0.229363
4531.99	0.14975
4531.51	0.102812
4531.03	0.112074
4530.55	0.142956
4530.06	0.181619
4529.58	0.221451
4529.1	0.226124
4528.62	0.194829
4528.14	0.178574
4527.65	0.193893
4527.17	0.198943
4526.69	0.161792
4526.21	0.125814
4525.72	0.131698
4525.24	0.158118
4524.76	0.168969
4524.28	0.161942
4523.79	0.149431
4523.31	0.138771
4522.83	0.148325
4522.35	0.193166
4521.87	0.240059
4521.38	0.227939
4520.9	0.182358
4520.42	0.181595
4519.94	0.225644
4519.45	0.230799
4518.97	0.183203
4518.49	0.172613
4518.01	0.228129
4517.53	0.266356
4517.04	0.214915
4516.56	0.146026
4516.08	0.134385
4515.6	0.148901
4515.11	0.141868
4514.63	0.143454
4514.15	0.175964
4513.67	0.185701
4513.18	0.141653
4512.7	0.117324
4512.22	0.163947
4511.74	0.211966
4511.26	0.188495
4510.77	0.150064
4510.29	0.181807
4509.81	0.236053
4509.33	0.21159
4508.84	0.16072
4508.36	0.167292
4507.88	0.206036
4507.4	0.180303
4506.92	0.117283
4506.43	0.115883
4505.95	0.176774
4505.47	0.203543
4504.99	0.168109
4504.5	0.16283
4504.02	0.219373
4503.54	0.258501
4503.06	0.223214
4502.57	0.183422
4502.09	0.21632
4501.61	0.285619
4501.13	0.298491
4500.65	0.22632
4500.16	0.147877
4499.68	0.129428
4499.2	0.166851
4498.72	0.217151
4498.23	0.218088
4497.75	0.17049
4497.27	0.13887
4496.79	0.162223
4496.3	0.214951
4495.82	0.226314
4495.34	0.193037
4494.86	0.161265
4494.38	0.137505
4493.89	0.108742
4493.41	0.0972402
4492.93	0.135348
4492.45	0.18704
4491.96	0.175458
4491.48	0.113867
4491	0.0818829
4490.52	0.11578
4490.04	0.158825
4489.55	0.158885
4489.07	0.140116
4488.59	0.137902
4488.11	0.145229
4487.62	0.155658
4487.14	0.194379
4486.66	0.253733
4486.18	0.254405
4485.69	0.161703
4485.21	0.0688595
4484.73	0.0877046
4484.25	0.198117
4483.77	0.273256
4483.28	0.239997
4482.8	0.170275
4482.32	0.155526
4481.84	0.185431
4481.35	0.207
4480.87	0.192406
4480.39	0.16551
4479.91	0.145444
4479.43	0.126144
4478.94	0.11926
4478.46	0.14452
4477.98	0.176452
4477.5	0.170121
4477.01	0.135331
4476.53	0.131741
4476.05	0.170005
4475.57	0.193872
4475.08	0.170889
4474.6	0.150289
4474.12	0.177717
4473.64	0.209687
4473.16	0.178772
4472.67	0.110491
4472.19	0.0896193
4471.71	0.12991
4471.23	0.161619
4470.74	0.146252
4470.26	0.126139
4469.78	0.137181
4469.3	0.163045
4468.81	0.17167
4468.33	0.169486
4467.85	0.17616
4467.37	0.188197
4466.89	0.195731
4466.4	0.201679
4465.92	0.199359
4465.44	0.172802
4464.96	0.141136
4464.47	0.138875
4463.99	0.159681
4463.51	0.168397
4463.03	0.157265
4462.55	0.16344
4462.06	0.195461
4461.58	0.209146
4461.1	0.179882
4460.62	0.156472
4460.13	0.184913
4459.65	0.245418
4459.17	0.273503
4458.69	0.250471
4458.2	0.206785
4457.72	0.162245
4457.24	0.136694
4456.76	0.154851
4456.28	0.208565
4455.79	0.245035
4455.31	0.219819
4454.83	0.16394
4454.35	0.131636
4453.86	0.136195
4453.38	0.15481
4452.9	0.164398
4452.42	0.161007
4451.94	0.149038
4451.45	0.138534
4450.97	0.140751
4450.49	0.15485
4450.01	0.1722
4449.52	0.190473
4449.04	0.213492
4448.56	0.234209
4448.08	0.232174
4447.59	0.207342
4447.11	0.200159
4446.63	0.225394
4446.15	0.253221
4445.67	0.245228
4445.18	0.204689
4444.7	0.173499
4444.22	0.17476
4443.74	0.201386
4443.25	0.21469
4442.77	0.189718
4442.29	0.152012
4441.81	0.1397
4441.32	0.175224
4440.84	0.222079
4440.36	0.219319
4439.88	0.17848
4439.4	0.14109
4438.91	0.121126
4438.43	0.110969
4437.95	0.114518
4437.47	0.143629
4436.98	0.187247
4436.5	0.21147
4436.02	0.207039
4435.54	0.201379
4435.06	0.1999
4434.57	0.182346
4434.09	0.150557
4433.61	0.139308
4433.13	0.153939
4432.64	0.160281
4432.16	0.147513
4431.68	0.136309
4431.2	0.137113
4430.71	0.132282
4430.23	0.114351
4429.75	0.107034
4429.27	0.131549
4428.79	0.169211
4428.3	0.195512
4427.82	0.203391
4427.34	0.1893
4426.86	0.167271
4426.37	0.17015
4425.89	0.202853
4425.41	0.221801
4424.93	0.189676
4424.45	0.150948
4423.96	0.170444
4423.48	0.23046
4423	0.234219
4422.52	0.165814
4422.03	0.11623
4421.55	0.138486
4421.07	0.193797
4420.59	0.207202
4420.1	0.178916
4419.62	0.160791
4419.14	0.177654
4418.66	0.218003
4418.18	0.256041
4417.69	0.257655
4417.21	0.192398
4416.73	0.0906776
4416.25	0.0417053
4415.76	0.0818569
4415.28	0.150705
4414.8	0.179556
4414.32	0.171991
4413.83	0.175862
4413.35	0.190595
4412.87	0.171678
4412.39	0.121262
4411.91	0.104249
4411.42	0.151433
4410.94	0.215745
4410.46	0.232041
4409.98	0.195599
4409.49	0.167661
4409.01	0.176643
4408.53	0.188187
4408.05	0.171045
4407.57	0.158943
4407.08	0.199559
4406.6	0.261883
4406.12	0.256896
4405.64	0.163824
4405.15	0.0885479
4404.67	0.10775
4404.19	0.175473
4403.71	0.203194
4403.22	0.186364
4402.74	0.180942
4402.26	0.182972
4401.78	0.149271
4401.3	0.103628
4400.81	0.116587
4400.33	0.185528
4399.85	0.214328
4399.37	0.152821
4398.88	0.0987107
4398.4	0.120546
4397.92	0.163868
4397.44	0.157322
4396.96	0.126479
4396.47	0.144383
4395.99	0.195934
4395.51	0.20628
4395.03	0.165237
4394.54	0.131822
4394.06	0.136201
4393.58	0.149525
4393.1	0.149473
4392.61	0.153952
4392.13	0.177032
4391.65	0.204457
4391.17	0.218212
4390.69	0.215427
4390.2	0.193868
4389.72	0.156228
4389.24	0.130557
4388.76	0.144125
4388.27	0.181565
4387.79	0.197358
4387.31	0.177974
4386.83	0.15905
4386.34	0.159173
4385.86	0.152401
4385.38	0.117031
4384.9	0.0886181
4384.42	0.10851
4383.93	0.163782
4383.45	0.203636
4382.97	0.194835
4382.49	0.173282
4382	0.186878
4381.52	0.230589
4381.04	0.251814
4380.56	0.219278
4380.08	0.174631
4379.59	0.165488
4379.11	0.189869
4378.63	0.207319
4378.15	0.196681
4377.66	0.184308
4377.18	0.19066
4376.7	0.200429
4376.22	0.193985
4375.73	0.182283
4375.25	0.1897
4374.77	0.207258
4374.29	0.205367
4373.81	0.179779
4373.32	0.156842
4372.84	0.154947
4372.36	0.162954
4371.88	0.167038
4371.39	0.169941
4370.91	0.178171
4370.43	0.184016
4369.95	0.178672
4369.46	0.169414
4368.98	0.16528
4368.5	0.163925
4368.02	0.161532
4367.54	0.169638
4367.05	0.200669
4366.57	0.239575
4366.09	0.244407
4365.61	0.20708
4365.12	0.172853
4364.64	0.175609
4364.16	0.200603
4363.68	0.203981
4363.2	0.183483
4362.71	0.174329
4362.23	0.188916
4361.75	0.202251
4361.27	0.194444
4360.78	0.182688
4360.3	0.185407
4359.82	0.189679
4359.34	0.177521
4358.85	0.161673
4358.37	0.165374
4357.89	0.186827
4357.41	0.200445
4356.93	0.194803
4356.44	0.181481
4355.96	0.172152
4355.48	0.169151
4355	0.169937
4354.51	0.169512
4354.03	0.164682
4353.55	0.163402
4353.07	0.176233
4352.59	0.190551
4352.1	0.176186
4351.62	0.133509
4351.14	0.108353
4350.66	0.135896
4350.17	0.187324
4349.69	0.208189
4349.21	0.19171
4348.73	0.178924
4348.24	0.196688
4347.76	0.222667
4347.28	0.228937
4346.8	0.211766
4346.32	0.178254
4345.83	0.148858
4345.35	0.152342
4344.87	0.185861
4344.39	0.205801
4343.9	0.17001
4343.42	0.108744
4342.94	0.0958534
4342.46	0.132981
4341.97	0.155949
4341.49	0.132007
4341.01	0.120349
4340.53	0.168769
4340.05	0.229365
4339.56	0.224415
4339.08	0.163454
4338.6	0.139479
4338.12	0.169355
4337.63	0.188391
4337.15	0.157988
4336.67	0.128028
4336.19	0.148154
4335.71	0.181597
4335.22	0.169239
4334.74	0.129288
4334.26	0.124613
4333.78	0.168407
4333.29	0.20838
4332.81	0.197396
4332.33	0.165207
4331.85	0.154458
4331.36	0.161759
4330.88	0.161935
4330.4	0.154334
4329.92	0.161733
4329.44	0.190434
4328.95	0.210048
4328.47	0.192243
4327.99	0.148862
4327.51	0.117336
4327.02	0.125764
4326.54	0.157167
4326.06	0.169101
4325.58	0.150275
4325.1	0.138888
4324.61	0.171409
4324.13	0.225336
4323.65	0.239167
4323.17	0.195998
4322.68	0.15027
4322.2	0.147889
4321.72	0.177018
4321.24	0.1896
4320.75	0.17388
4320.27	0.165476
4319.79	0.177367
4319.31	0.180543
4318.83	0.156521
4318.34	0.134928
4317.86	0.14718
4317.38	0.182724
4316.9	0.203199
4316.41	0.190444
4315.93	0.165976
4315.45	0.152105
4314.97	0.151314
4314.48	0.161946
4314	0.182051
4313.52	0.199961
4313.04	0.205118
4312.56	0.202703
4312.07	0.205548
4311.59	0.211728
4311.11	0.202764
4310.63	0.174579
4310.14	0.150382
4309.66	0.153563
4309.18	0.173617
4308.7	0.182808
4308.22	0.175397
4307.73	0.16982
4307.25	0.179706
4306.77	0.197178
4306.29	0.205031
4305.8	0.194537
4305.32	0.171503
4304.84	0.149762
4304.36	0.143401
4303.87	0.156339
4303.39	0.173835
4302.91	0.17673
4302.43	0.165892
4301.95	0.162089
4301.46	0.174846
4300.98	0.188999
4300.5	0.195952
4300.02	0.206161
4299.53	0.219158
4299.05	0.207981
4298.57	0.16435
4298.09	0.126547
4297.61	0.128547
4297.12	0.151108
4296.64	0.151988
4296.16	0.137457
4295.68	0.151621
4295.19	0.189515
4294.71	0.180962
4294.23	0.119335
4293.75	0.0814006
4293.26	0.130213
4292.78	0.228187
4292.3	0.268052
4291.82	0.22865
4291.34	0.187368
4290.85	0.198917
4290.37	0.225649
4289.89	0.206751
4289.41	0.151693
4288.92	0.120859
4288.44	0.142708
4287.96	0.183553
4287.48	0.194568
4286.99	0.170255
4286.51	0.151516
4286.03	0.160826
4285.55	0.181783
4285.07	0.185257
4284.58	0.171538
4284.1	0.163115
4283.62	0.157509
4283.14	0.135185
4282.65	0.113276
4282.17	0.135191
4281.69	0.209282
4281.21	0.268579
4280.73	0.249073
4280.24	0.205271
4279.76	0.200025
4279.28	0.224896
4278.8	0.220647
4278.31	0.192226
4277.83	0.192872
4277.35	0.225465
4276.87	0.221373
4276.38	0.163069
4275.9	0.124433
4275.42	0.151984
4274.94	0.212534
4274.46	0.224944
4273.97	0.186644
4273.49	0.160652
4273.01	0.17974
4272.53	0.212106
4272.04	0.21211
4271.56	0.174555
4271.08	0.13513
4270.6	0.133702
4270.12	0.166121
4269.63	0.198184
4269.15	0.201605
4268.67	0.187668
4268.19	0.192952
4267.7	0.216859
4267.22	0.22389
4266.74	0.203449
4266.26	0.184421
4265.77	0.182006
4265.29	0.185038
4264.81	0.19121
4264.33	0.208969
4263.85	0.21855
4263.36	0.188815
4262.88	0.14838
4262.4	0.157372
4261.92	0.207476
4261.43	0.211511
4260.95	0.149534
4260.47	0.121293
4259.99	0.171339
4259.5	0.225971
4259.02	0.198625
4258.54	0.133025
4258.06	0.126811
4257.58	0.16473
4257.09	0.159507
4256.61	0.117711
4256.13	0.114346
4255.65	0.151279
4255.16	0.152714
4254.68	0.110386
4254.2	0.103538
4253.72	0.155526
4253.24	0.194359
4252.75	0.178472
4252.27	0.153814
4251.79	0.152079
4251.31	0.140038
4250.82	0.110817
4250.34	0.114818
4249.86	0.166001
4249.38	0.194402
4248.89	0.151195
4248.41	0.114305
4247.93	0.14497
4247.45	0.197046
4246.97	0.197963
4246.48	0.165229
4246	0.159533
4245.52	0.183119
4245.04	0.198926
4244.55	0.204684
4244.07	0.215488
4243.59	0.207391
4243.11	0.16368
4242.63	0.134651
4242.14	0.155069
4241.66	0.182722
4241.18	0.167825
4240.7	0.139666
4240.21	0.15428
4239.73	0.200496
4239.25	0.221735
4238.77	0.21052
4238.28	0.207664
4237.8	0.207085
4237.32	0.175784
4236.84	0.135578
4236.36	0.14303
4235.87	0.184079
4235.39	0.204453
4234.91	0.199767
4234.43	0.213276
4233.94	0.246663
4233.46	0.245507
4232.98	0.202126
4232.5	0.171395
4232.01	0.180212
4231.53	0.192553
4231.05	0.170386
4230.57	0.13643
4230.09	0.131063
4229.6	0.159174
4229.12	0.196271
4228.64	0.207291
4228.16	0.182042
4227.67	0.149684
4227.19	0.150749
4226.71	0.186604
4226.23	0.199668
4225.75	0.156649
4225.26	0.102112
4224.78	0.104081
4224.3	0.151383
4223.82	0.182505
4223.33	0.191454
4222.85	0.208759
4222.37	0.223831
4221.89	0.198347
4221.4	0.148603
4220.92	0.125543
4220.44	0.14507
4219.96	0.167727
4219.48	0.166462
4218.99	0.153415
4218.51	0.138003
4218.03	0.118606
4217.55	0.112166
4217.06	0.138659
4216.58	0.171042
4216.1	0.168748
4215.62	0.150908
4215.14	0.167606
4214.65	0.21464
4214.17	0.229253
4213.69	0.207434
4213.21	0.190487
4212.72	0.183618
4212.24	0.155016
4211.76	0.120434
4211.28	0.125572
4210.79	0.17264
4210.31	0.203481
4209.83	0.193327
4209.35	0.193351
4208.87	0.22281
4208.38	0.222452
4207.9	0.165632
4207.42	0.118751
4206.94	0.129983
4206.45	0.169518
4205.97	0.177979
4205.49	0.154449
4205.01	0.128766
4204.52	0.106893
4204.04	0.0924683
4203.56	0.106195
4203.08	0.150127
4202.6	0.187332
4202.11	0.186876
4201.63	0.171419
4201.15	0.167364
4200.67	0.16051
4200.18	0.143242
4199.7	0.14435
4199.22	0.175408
4198.74	0.190167
4198.26	0.162081
4197.77	0.137911
4197.29	0.158519
4196.81	0.191237
4196.33	0.175959
4195.84	0.133049
4195.36	0.117899
4194.88	0.132942
4194.4	0.138488
4193.91	0.128863
4193.43	0.131364
4192.95	0.147896
4192.47	0.150673
4191.99	0.141802
4191.5	0.153864
4191.02	0.19268
4190.54	0.220987
4190.06	0.213469
4189.57	0.189944
4189.09	0.170716
4188.61	0.162809
4188.13	0.171634
4187.65	0.193183
4187.16	0.204295
4186.68	0.181834
4186.2	0.14423
4185.72	0.131501
4185.23	0.149096
4184.75	0.17266
4184.27	0.183945
4183.79	0.186239
4183.3	0.1807
4182.82	0.160434
4182.34	0.134978
4181.86	0.128046
4181.38	0.14062
4180.89	0.152104
4180.41	0.150775
4179.93	0.14489
4179.45	0.146451
4178.96	0.157971
4178.48	0.172309
4178	0.178331
4177.52	0.170724
4177.03	0.156192
4176.55	0.147766
4176.07	0.145196
4175.59	0.136699
4175.11	0.127204
4174.62	0.139088
4174.14	0.172128
4173.66	0.189264
4173.18	0.172413
4172.69	0.153283
4172.21	0.165538
4171.73	0.19381
4171.25	0.194942
4170.77	0.163278
4170.28	0.134784
4169.8	0.130647
4169.32	0.145166
4168.84	0.163308
4168.35	0.168904
4167.87	0.15709
4167.39	0.144347
4166.91	0.155907
4166.42	0.187486
4165.94	0.190762
4165.46	0.150926
4164.98	0.122583
4164.5	0.152957
4164.01	0.213452
4163.53	0.220777
4163.05	0.165507
4162.57	0.136565
4162.08	0.16994
4161.6	0.207219
4161.12	0.184085
4160.64	0.136041
4160.16	0.133176
4159.67	0.163804
4159.19	0.17753
4158.71	0.165263
4158.23	0.16655
4157.74	0.188606
4157.26	0.19027
4156.78	0.158261
4156.3	0.131685
4155.81	0.141905
4155.33	0.169
4154.85	0.178196
4154.37	0.169218
4153.89	0.158196
4153.4	0.143445
4152.92	0.122996
4152.44	0.115357
4151.96	0.133257
4151.47	0.155065
4150.99	0.157272
4150.51	0.152728
4150.03	0.163862
4149.54	0.180031
4149.06	0.176339
4148.58	0.162761
4148.1	0.169588
4147.62	0.194485
4147.13	0.201169
4146.65	0.181667
4146.17	0.162134
4145.69	0.159246
4145.2	0.163833
4144.72	0.163893
4144.24	0.164395
4143.76	0.171626
4143.28	0.181007
4142.79	0.189318
4142.31	0.200922
4141.83	0.21327
4141.35	0.214849
4140.86	0.203717
4140.38	0.189653
4139.9	0.173334
4139.42	0.150983
4138.93	0.135145
4138.45	0.143244
4137.97	0.167964
4137.49	0.184313
4137.01	0.184306
4136.52	0.180828
4136.04	0.178165
4135.56	0.170278
4135.08	0.165035
4134.59	0.175391
4134.11	0.191154
4133.63	0.190676
4133.15	0.182291
4132.67	0.191335
4132.18	0.204418
4131.7	0.182366
4131.22	0.134211
4130.74	0.123138
4130.25	0.171058
4129.77	0.227678
4129.29	0.239508
4128.81	0.20696
4128.32	0.16856
4127.84	0.140007
4127.36	0.124682
4126.88	0.145068
4126.4	0.203837
4125.91	0.244132
4125.43	0.23163
4124.95	0.199437
4124.47	0.194783
4123.98	0.214036
4123.5	0.211768
4123.02	0.179538
4122.54	0.146358
4122.05	0.137332
4121.57	0.153663
4121.09	0.185412
4120.61	0.216773
4120.13	0.220245
4119.64	0.189539
4119.16	0.155642
4118.68	0.148117
4118.2	0.166505
4117.71	0.185427
4117.23	0.18463
4116.75	0.164611
4116.27	0.142338
4115.79	0.141669
4115.3	0.174864
4114.82	0.221406
4114.34	0.230553
4113.86	0.193837
4113.37	0.168396
4112.89	0.18727
4112.41	0.216331
4111.93	0.200785
4111.44	0.152242
4110.96	0.125143
4110.48	0.139131
4110	0.167595
4109.52	0.182179
4109.03	0.185441
4108.55	0.186637
4108.07	0.184064
4107.59	0.177811
4107.1	0.17429
4106.62	0.174143
4106.14	0.174024
4105.66	0.178625
4105.18	0.191119
4104.69	0.196428
4104.21	0.176527
4103.73	0.147423
4103.25	0.143637
4102.76	0.170002
4102.28	0.192755
4101.8	0.175182
4101.32	0.129072
4100.83	0.109027
4100.35	0.150477
4099.87	0.226292
4099.39	0.258918
4098.91	0.219873
4098.42	0.16845
4097.94	0.153746
4097.46	0.166896
4096.98	0.169273
4096.49	0.159675
4096.01	0.164273
4095.53	0.179931
4095.05	0.177505
4094.56	0.167623
4094.08	0.192025
4093.6	0.241036
4093.12	0.251159
4092.64	0.192961
4092.15	0.132608
4091.67	0.122548
4091.19	0.142173
4090.71	0.155131
4090.22	0.162143
4089.74	0.173777
4089.26	0.175772
4088.78	0.165377
4088.3	0.175074
4087.81	0.217184
4087.33	0.244566
4086.85	0.211263
4086.37	0.162899
4085.88	0.157018
4085.4	0.181046
4084.92	0.193046
4084.44	0.195065
4083.95	0.210557
4083.47	0.21663
4082.99	0.176923
4082.51	0.126527
4082.03	0.126445
4081.54	0.169478
4081.06	0.19408
4080.58	0.179756
4080.1	0.167087
4079.61	0.168805
4079.13	0.155399
4078.65	0.129525
4078.17	0.13219
4077.69	0.169242
4077.2	0.196208
4076.72	0.177746
4076.24	0.152363
4075.76	0.152082
4075.27	0.153247
4074.79	0.132025
4074.31	0.113731
4073.83	0.129103
4073.34	0.163009
4072.86	0.1745
4072.38	0.161635
4071.9	0.153414
4071.42	0.155048
4070.93	0.153491
4070.45	0.154391
4069.97	0.174302
4069.49	0.202011
4069	0.199924
4068.52	0.162116
4068.04	0.132736
4067.56	0.136863
4067.07	0.157832
4066.59	0.165282
4066.11	0.15219
4065.63	0.137607
4065.15	0.133258
4064.66	0.133585
4064.18	0.135735
4063.7	0.145529
4063.22	0.162089
4062.73	0.171056
4062.25	0.162912
4061.77	0.142814
4061.29	0.126611
4060.81	0.130301
4060.32	0.156778
4059.84	0.194286
4059.36	0.216302
4058.88	0.204699
4058.39	0.181469
4057.91	0.17822
4057.43	0.191275
4056.95	0.185612
4056.46	0.15187
4055.98	0.124883
4055.5	0.13958
4055.02	0.179926
4054.54	0.195775
4054.05	0.174603
4053.57	0.145648
4053.09	0.136909
4052.61	0.151708
4052.12	0.177497
4051.64	0.194323
4051.16	0.184746
4050.68	0.157849
4050.2	0.144504
4049.71	0.163355
4049.23	0.18767
4048.75	0.177785
4048.27	0.145307
4047.78	0.131822
4047.3	0.150524
4046.82	0.17345
4046.34	0.184809
4045.85	0.20029
4045.37	0.224036
4044.89	0.231204
4044.41	0.213041
4043.93	0.192035
4043.44	0.184157
4042.96	0.174229
4042.48	0.147485
4042	0.120836
4041.51	0.11975
4041.03	0.148524
4040.55	0.184322
4040.07	0.199622
4039.58	0.189418
4039.1	0.16879
4038.62	0.156265
4038.14	0.160455
4037.66	0.172846
4037.17	0.181023
4036.69	0.182205
4036.21	0.173922
4035.73	0.149618
4035.24	0.119468
4034.76	0.113691
4034.28	0.147846
4033.8	0.189091
4033.32	0.192633
4032.83	0.169271
4032.35	0.159391
4031.87	0.171012
4031.39	0.183214
4030.9	0.19664
4030.42	0.227669
4029.94	0.253237
4029.46	0.226997
4028.97	0.159088
4028.49	0.109648
4028.01	0.107566
4027.53	0.121896
4027.05	0.128621
4026.56	0.144079
4026.08	0.171677
4025.6	0.178742
4025.12	0.15905
4024.63	0.153866
4024.15	0.17567
4023.67	0.176227
4023.19	0.133191
4022.71	0.102162
4022.22	0.128541
4021.74	0.170044
4021.26	0.164035
4020.78	0.138048
4020.29	0.159343
4019.81	0.225668
4019.33	0.259243
4018.85	0.216511
4018.36	0.163097
4017.88	0.151061
4017.4	0.162423
4016.92	0.164492
4016.44	0.153903
4015.95	0.149741
4015.47	0.156727
4014.99	0.165166
4014.51	0.167082
4014.02	0.159473
4013.54	0.143941
4013.06	0.125723
4012.58	0.11373
4012.09	0.121949
4011.61	0.15905
4011.13	0.208716
4010.65	0.230279
4010.17	0.19939
4009.68	0.155271
4009.2	0.15323
4008.72	0.185382
4008.24	0.199237
4007.75	0.181897
4007.27	0.179559
4006.79	0.207967
4006.31	0.216599
4005.83	0.172773
4005.34	0.129082
4004.86	0.138041
4004.38	0.16259
4003.9	0.147653
4003.41	0.121629
4002.93	0.14402
4002.45	0.201547
4001.97	0.211504
4001.48	0.160857
4001	0.126461
4000.52	0.143549
4000.04	0.177903
3999.56	0.191131
3999.07	0.192932
3998.59	0.199867
3998.11	0.198941
3997.63	0.186001
3997.14	0.182162
3996.66	0.189672
3996.18	0.185162
3995.7	0.170053
3995.22	0.177108
3994.73	0.213805
3994.25	0.239932
3993.77	0.221688
3993.29	0.192633
3992.8	0.190082
3992.32	0.199571
3991.84	0.190647
3991.36	0.166153
3990.87	0.144982
3990.39	0.127594
3989.91	0.109941
3989.43	0.102529
3988.95	0.114604
3988.46	0.139843
3987.98	0.164301
3987.5	0.180099
3987.02	0.183684
3986.53	0.175083
3986.05	0.170984
3985.57	0.190729
3985.09	0.220321
3984.6	0.21549
3984.12	0.174116
3983.64	0.157461
3983.16	0.184774
3982.68	0.205489
3982.19	0.164823
3981.71	0.10781
3981.23	0.112264
3980.75	0.172144
3980.26	0.221596
3979.78	0.204636
3979.3	0.159429
3978.82	0.146402
3978.34	0.161183
3977.85	0.169191
3977.37	0.159436
3976.89	0.151226
3976.41	0.156152
3975.92	0.163108
3975.44	0.162136
3974.96	0.160017
3974.48	0.166108
3973.99	0.175555
3973.51	0.17543
3973.03	0.159777
3972.55	0.13544
3972.07	0.120292
3971.58	0.131482
3971.1	0.170863
3970.62	0.213743
3970.14	0.219079
3969.65	0.177948
3969.17	0.131627
3968.69	0.129943
3968.21	0.166135
3967.72	0.176056
3967.24	0.140128
3966.76	0.109556
3966.28	0.130581
3965.8	0.179225
3965.31	0.195803
3964.83	0.170717
3964.35	0.154066
3963.87	0.169109
3963.38	0.183767
3962.9	0.175193
3962.42	0.156179
3961.94	0.143772
3961.46	0.133503
3960.97	0.126817
3960.49	0.143022
3960.01	0.178058
3959.53	0.189856
3959.04	0.158927
3958.56	0.121119
3958.08	0.117229
3957.6	0.140692
3957.11	0.156273
3956.63	0.153975
3956.15	0.150642
3955.67	0.150991
3955.19	0.150194
3954.7	0.154762
3954.22	0.167048
3953.74	0.166074
3953.26	0.143039
3952.77	0.133615
3952.29	0.175501
3951.81	0.229317
3951.33	0.222142
3950.85	0.154532
3950.36	0.108145
3949.88	0.134115
3949.4	0.175929
3948.92	0.162575
3948.43	0.127062
3947.95	0.147661
3947.47	0.207651
3946.99	0.218743
3946.5	0.151607
3946.02	0.0993897
3945.54	0.116146
3945.06	0.149194
3944.58	0.139682
3944.09	0.114646
3943.61	0.138046
3943.13	0.19583
3942.65	0.206224
3942.16	0.154494
3941.68	0.128985
3941.2	0.168212
3940.72	0.219883
3940.23	0.218956
3939.75	0.188828
3939.27	0.179156
3938.79	0.180304
3938.31	0.162595
3937.82	0.142809
3937.34	0.152479
3936.86	0.178814
3936.38	0.1823
3935.89	0.166688
3935.41	0.168584
3934.93	0.195108
3934.45	0.218625
3933.97	0.220289
3933.48	0.216565
3933	0.214465
3932.52	0.195372
3932.04	0.157594
3931.55	0.133114
3931.07	0.143338
3930.59	0.17292
3930.11	0.191901
3929.62	0.181393
3929.14	0.148492
3928.66	0.128614
3928.18	0.148079
3927.7	0.189369
3927.21	0.202544
3926.73	0.169958
3926.25	0.136069
3925.77	0.136448
3925.28	0.160888
3924.8	0.174034
3924.32	0.171787
3923.84	0.169939
3923.36	0.157571
3922.87	0.125101
3922.39	0.109908
3921.91	0.137985
3921.43	0.17696
3920.94	0.177631
3920.46	0.145777
3919.98	0.141963
3919.5	0.184012
3919.01	0.217619
3918.53	0.205098
3918.05	0.175687
3917.57	0.158027
3917.09	0.15055
3916.6	0.14742
3916.12	0.154171
3915.64	0.169737
3915.16	0.184762
3914.67	0.199371
3914.19	0.215583
3913.71	0.214846
3913.23	0.179349
3912.74	0.135205
3912.26	0.125495
3911.78	0.146779
3911.3	0.163998
3910.82	0.16698
3910.33	0.175664
3909.85	0.18747
3909.37	0.179789
3908.89	0.164074
3908.4	0.170687
3907.92	0.186732
3907.44	0.172933
3906.96	0.137507
3906.48	0.133054
3905.99	0.164398
3905.51	0.17217
3905.03	0.128777
3904.55	0.0974462
3904.06	0.131996
3903.58	0.179967
3903.1	0.183388
3902.62	0.163034
3902.13	0.15877
3901.65	0.153484
3901.17	0.117613
3900.69	0.0788509
3900.21	0.0807059
3899.72	0.124714
3899.24	0.167748
3898.76	0.188786
3898.28	0.195077
3897.79	0.185285
3897.31	0.165769
3896.83	0.159127
3896.35	0.170595
3895.87	0.176099
3895.38	0.158586
3894.9	0.13879
3894.42	0.140144
3893.94	0.160707
3893.45	0.184257
3892.97	0.205127
3892.49	0.223018
3892.01	0.222164
3891.52	0.186463
3891.04	0.142126
3890.56	0.127438
3890.08	0.138617
3889.6	0.158952
3889.11	0.17735
3888.63	0.179074
3888.15	0.159644
3887.67	0.141238
3887.18	0.148631
3886.7	0.17165
3886.22	0.167842
3885.74	0.134268
3885.25	0.12255
3884.77	0.154636
3884.29	0.182382
3883.81	0.173045
3883.33	0.15361
3882.84	0.146056
3882.36	0.1411
3881.88	0.134292
3881.4	0.144123
3880.91	0.175061
3880.43	0.195153
3879.95	0.184685
3879.47	0.179579
3878.99	0.199259
3878.5	0.207119
3878.02	0.179599
3877.54	0.150861
3877.06	0.157884
3876.57	0.184734
3876.09	0.189192
3875.61	0.170296
3875.13	0.157293
3874.64	0.163915
3874.16	0.175087
3873.68	0.171985
3873.2	0.15678
3872.72	0.14595
3872.23	0.151628
3871.75	0.16713
3871.27	0.171034
3870.79	0.14859
3870.3	0.126331
3869.82	0.147967
3869.34	0.18674
3868.86	0.184018
3868.38	0.152338
3867.89	0.151499
3867.41	0.179339
3866.93	0.187921
3866.45	0.167414
3865.96	0.149447
3865.48	0.153299
3865	0.15328
3864.52	0.139068
3864.03	0.141107
3863.55	0.161059
3863.07	0.158949
3862.59	0.133662
3862.11	0.132148
3861.62	0.165627
3861.14	0.181488
3860.66	0.150373
3860.18	0.127612
3859.69	0.142897
3859.21	0.158167
3858.73	0.14792
3858.25	0.146592
3857.76	0.172812
3857.28	0.181748
3856.8	0.146362
3856.32	0.129626
3855.84	0.182776
3855.35	0.262368
3854.87	0.26582
3854.39	0.195893
3853.91	0.164324
3853.42	0.176991
3852.94	0.137463
3852.46	0.0711184
3851.98	0.0712325
3851.5	0.133056
3851.01	0.170716
3850.53	0.163808
3850.05	0.16395
3849.57	0.178006
3849.08	0.17548
3848.6	0.160074
3848.12	0.16139
3847.64	0.166537
3847.15	0.141606
3846.67	0.106668
3846.19	0.115522
3845.71	0.165175
3845.23	0.193578
3844.74	0.174588
3844.26	0.160696
3843.78	0.181241
3843.3	0.192768
3842.81	0.164315
3842.33	0.14237
3841.85	0.166159
3841.37	0.206843
3840.89	0.211612
3840.4	0.183918
3839.92	0.167478
3839.44	0.172475
3838.96	0.186973
3838.47	0.205242
3837.99	0.213767
3837.51	0.191623
3837.03	0.15614
3836.54	0.146558
3836.06	0.159708
3835.58	0.150925
3835.1	0.112332
3834.62	0.101419
3834.13	0.148646
3833.65	0.197729
3833.17	0.191112
3832.69	0.160275
3832.2	0.16387
3831.72	0.190214
3831.24	0.178309
3830.76	0.134225
3830.27	0.132123
3829.79	0.18459
3829.31	0.215649
3828.83	0.181858
3828.35	0.139789
3827.86	0.155032
3827.38	0.209995
3826.9	0.230955
3826.42	0.20365
3825.93	0.182816
3825.45	0.193765
3824.97	0.196892
3824.49	0.16486
3824.01	0.129447
3823.52	0.128112
3823.04	0.155534
3822.56	0.178082
3822.08	0.180689
3821.59	0.175209
3821.11	0.173772
3820.63	0.173722
3820.15	0.174355
3819.66	0.178438
3819.18	0.179898
3818.7	0.175112
3818.22	0.174154
3817.74	0.1863
3817.25	0.201885
3816.77	0.19986
3816.29	0.178349
3815.81	0.158826
3815.32	0.156911
3814.84	0.165548
3814.36	0.175301
3813.88	0.18498
3813.4	0.188814
3812.91	0.179624
3812.43	0.165029
3811.95	0.160736
3811.47	0.165336
3810.98	0.160492
3810.5	0.142332
3810.02	0.134247
3809.54	0.156705
3809.05	0.19624
3808.57	0.221294
3808.09	0.218126
3807.61	0.199533
3807.13	0.18433
3806.64	0.175288
3806.16	0.165507
3805.68	0.158518
3805.2	0.161519
3804.71	0.169333
3804.23	0.168122
3803.75	0.152702
3803.27	0.139584
3802.78	0.146752
3802.3	0.171087
3801.82	0.185611
3801.34	0.166924
3800.86	0.143845
3800.37	0.151162
3799.89	0.17289
3799.41	0.174667
3798.93	0.161047
3798.44	0.16074
3797.96	0.183719
3797.48	0.202915
3797	0.187855
3796.52	0.15368
3796.03	0.137784
3795.55	0.153323
3795.07	0.173215
3794.59	0.175988
3794.1	0.173222
3793.62	0.176693
3793.14	0.178008
3792.66	0.169074
3792.17	0.160473
3791.69	0.161362
3791.21	0.159226
3790.73	0.144879
3790.25	0.138503
3789.76	0.161522
3789.28	0.186018
3788.8	0.168643
3788.32	0.12999
3787.83	0.130783
3787.35	0.183132
3786.87	0.220179
3786.39	0.191091
3785.91	0.138455
3785.42	0.132523
3784.94	0.174885
3784.46	0.205516
3783.98	0.194613
3783.49	0.16778
3783.01	0.150496
3782.53	0.148823
3782.05	0.166036
3781.56	0.19268
3781.08	0.194333
3780.6	0.153341
3780.12	0.105723
3779.64	0.103302
3779.15	0.142349
3778.67	0.165472
3778.19	0.157771
3777.71	0.153849
3777.22	0.162132
3776.74	0.156871
3776.26	0.137709
3775.78	0.138728
3775.29	0.16815
3774.81	0.189381
3774.33	0.175038
3773.85	0.151302
3773.37	0.146049
3772.88	0.151497
3772.4	0.151097
3771.92	0.149823
3771.44	0.155516
3770.95	0.159729
3770.47	0.155508
3769.99	0.155298
3769.51	0.165241
3769.03	0.170143
3768.54	0.162742
3768.06	0.163577
3767.58	0.179855
3767.1	0.190182
3766.61	0.173565
3766.13	0.14512
3765.65	0.135398
3765.17	0.146395
3764.68	0.164573
3764.2	0.175374
3763.72	0.170629
3763.24	0.154066
3762.76	0.141099
3762.27	0.148155
3761.79	0.165586
3761.31	0.168995
3760.83	0.155551
3760.34	0.145901
3759.86	0.151399
3759.38	0.15651
3758.9	0.154456
3758.42	0.158102
3757.93	0.167993
3757.45	0.167682
3756.97	0.158891
3756.49	0.163642
3756	0.185875
3755.52	0.201754
3755.04	0.196273
3754.56	0.180549
3754.07	0.167728
3753.59	0.159939
3753.11	0.165293
3752.63	0.193901
3752.15	0.214726
3751.66	0.180404
3751.18	0.126201
3750.7	0.118885
3750.22	0.165598
3749.73	0.201632
3749.25	0.172642
3748.77	0.127477
3748.29	0.12169
3747.8	0.132338
3747.32	0.136117
3746.84	0.143636
3746.36	0.160313
3745.88	0.166442
3745.39	0.152991
3744.91	0.150547
3744.43	0.184097
3743.95	0.193498
3743.46	0.14366
3742.98	0.106266
3742.5	0.114072
3742.02	0.142307
3741.54	0.162862
3741.05	0.17173
3740.57	0.172008
3740.09	0.159932
3739.61	0.146177
3739.12	0.151014
3738.64	0.161939
3738.16	0.141781
3737.68	0.0981376
3737.19	0.0953803
3736.71	0.157808
3736.23	0.20468
3735.75	0.163597
3735.27	0.110521
3734.78	0.147692
3734.3	0.213821
3733.82	0.198178
3733.34	0.123133
3732.85	0.0947576
3732.37	0.151833
3731.89	0.205704
3731.41	0.187936
3730.93	0.149198
3730.44	0.142234
3729.96	0.150507
3729.48	0.145767
3729	0.140035
3728.51	0.15115
3728.03	0.168352
3727.55	0.172513
3727.07	0.170127
3726.58	0.174731
3726.1	0.17285
3725.62	0.144477
3725.14	0.110449
3724.66	0.108952
3724.17	0.145293
3723.69	0.186065
3723.21	0.188329
3722.73	0.151001
3722.24	0.118978
3721.76	0.127887
3721.28	0.162709
3720.8	0.1729
3720.31	0.146286
3719.83	0.124304
3719.35	0.137322
3718.87	0.166533
3718.39	0.169658
3717.9	0.152395
3717.42	0.150962
3716.94	0.168035
3716.46	0.172081
3715.97	0.151554
3715.49	0.136983
3715.01	0.147112
3714.53	0.16319
3714.05	0.159883
3713.56	0.145043
3713.08	0.142784
3712.6	0.157045
3712.12	0.168135
3711.63	0.165106
3711.15	0.160474
3710.67	0.160474
3710.19	0.160544
3709.7	0.162491
3709.22	0.169222
3708.74	0.170231
3708.26	0.15604
3707.78	0.143133
3707.29	0.150906
3706.81	0.171816
3706.33	0.180439
3705.85	0.16874
3705.36	0.158716
3704.88	0.164945
3704.4	0.172015
3703.92	0.164376
3703.44	0.153017
3702.95	0.157188
3702.47	0.173995
3701.99	0.184061
3701.51	0.184561
3701.02	0.187322
3700.54	0.189568
3700.06	0.178897
3699.58	0.162096
3699.09	0.157613
3698.61	0.165705
3698.13	0.166346
3697.65	0.152672
3697.17	0.142044
3696.68	0.148507
3696.2	0.161934
3695.72	0.167243
3695.24	0.165851
3694.75	0.165644
3694.27	0.166208
3693.79	0.1666
3693.31	0.172905
3692.82	0.183516
3692.34	0.179723
3691.86	0.149782
3691.38	0.116492
3690.9	0.116281
3690.41	0.147425
3689.93	0.174709
3689.45	0.179152
3688.97	0.177225
3688.48	0.192278
3688	0.21024
3687.52	0.197688
3687.04	0.159004
3686.56	0.136158
3686.07	0.151882
3685.59	0.185856
3685.11	0.205627
3684.63	0.203309
3684.14	0.197035
3683.66	0.198842
3683.18	0.198462
3682.7	0.186983
3682.21	0.173007
3681.73	0.163665
3681.25	0.150127
3680.77	0.128412
3680.29	0.116912
3679.8	0.135771
3679.32	0.170181
3678.84	0.183785
3678.36	0.174532
3677.87	0.164868
3677.39	0.160655
3676.91	0.14817
3676.43	0.126638
3675.95	0.115243
3675.46	0.122167
3674.98	0.125313
3674.5	0.122057
3674.02	0.136453
3673.53	0.159577
3673.05	0.160912
3672.57	0.144418
3672.09	0.1428
3671.6	0.174799
3671.12	0.208844
3670.64	0.193885
3670.16	0.147763
3669.68	0.129295
3669.19	0.146189
3668.71	0.150709
3668.23	0.124264
3667.75	0.102793
3667.26	0.123011
3666.78	0.170188
3666.3	0.199789
3665.82	0.1931
3665.33	0.172621
3664.85	0.16791
3664.37	0.173106
3663.89	0.162791
3663.41	0.140384
3662.92	0.136453
3662.44	0.159509
3661.96	0.177141
3661.48	0.166792
3660.99	0.155404
3660.51	0.169578
3660.03	0.189547
3659.55	0.182266
3659.07	0.160128
3658.58	0.15686
3658.1	0.169389
3657.62	0.172022
3657.14	0.16641
3656.65	0.177756
3656.17	0.197386
3655.69	0.184464
3655.21	0.149316
3654.72	0.142825
3654.24	0.167484
3653.76	0.182006
3653.28	0.171369
3652.8	0.162267
3652.31	0.169049
3651.83	0.169967
3651.35	0.151845
3650.87	0.136578
3650.38	0.136987
3649.9	0.12742
3649.42	0.100201
3648.94	0.100767
3648.46	0.145942
3647.97	0.185941
3647.49	0.177255
3647.01	0.143929
3646.53	0.130679
3646.04	0.136731
3645.56	0.140917
3645.08	0.143679
3644.6	0.150995
3644.11	0.156992
3643.63	0.159332
3643.15	0.167053
3642.67	0.177652
3642.19	0.171008
3641.7	0.145086
3641.22	0.129283
3640.74	0.142676
3640.26	0.170842
3639.77	0.191123
3639.29	0.194845
3638.81	0.178201
3638.33	0.146133
3637.84	0.130163
3637.36	0.157461
3636.88	0.202883
3636.4	0.207864
3635.92	0.171341
3635.43	0.158656
3634.95	0.189777
3634.47	0.209724
3633.99	0.174846
3633.5	0.138022
3633.02	0.156187
3632.54	0.191146
3632.06	0.180769
3631.58	0.145016
3631.09	0.1432
3630.61	0.173878
3630.13	0.182797
3629.65	0.151429
3629.16	0.137529
3628.68	0.16996
3628.2	0.188694
3627.72	0.162538
3627.23	0.150683
3626.75	0.175332
3626.27	0.192303
3625.79	0.167896
3625.31	0.12907
3624.82	0.12266
3624.34	0.151242
3623.86	0.175828
3623.38	0.170056
3622.89	0.147904
3622.41	0.13861
3621.93	0.152357
3621.45	0.170907
3620.97	0.173289
3620.48	0.162374
3620	0.160893
3619.52	0.176153
3619.04	0.181578
3618.55	0.161716
3618.07	0.144963
3617.59	0.15926
3617.11	0.185544
3616.62	0.18896
3616.14	0.171545
3615.66	0.162974
3615.18	0.170614
3614.7	0.174444
3614.21	0.165237
3613.73	0.160364
3613.25	0.17163
3612.77	0.184064
3612.28	0.181102
3611.8	0.172204
3611.32	0.172463
3610.84	0.175587
3610.35	0.166669
3609.87	0.146153
3609.39	0.133777
3608.91	0.142312
3608.43	0.162772
3607.94	0.174292
3607.46	0.164436
3606.98	0.144584
3606.5	0.137335
3606.01	0.151938
3605.53	0.170587
3605.05	0.170207
3604.57	0.156335
3604.09	0.154687
3603.6	0.172646
3603.12	0.185623
3602.64	0.174771
3602.16	0.158539
3601.67	0.167111
3601.19	0.193712
3600.71	0.199991
3600.23	0.174988
3599.74	0.153205
3599.26	0.161613
3598.78	0.181924
3598.3	0.183919
3597.82	0.172344
3597.33	0.171176
3596.85	0.17766
3596.37	0.170046
3595.89	0.153588
3595.4	0.158085
3594.92	0.185801
3594.44	0.200801
3593.96	0.18297
3593.48	0.164076
3592.99	0.174597
3592.51	0.196494
3592.03	0.197723
3591.55	0.182329
3591.06	0.177166
3590.58	0.184584
3590.1	0.184873
3589.62	0.173663
3589.13	0.167085
3588.65	0.173836
3588.17	0.181455
3587.69	0.179458
3587.21	0.175049
3586.72	0.176261
3586.24	0.180411
3585.76	0.183203
3585.28	0.184042
3584.79	0.181029
3584.31	0.174038
3583.83	0.169194
3583.35	0.169346
3582.86	0.168492
3582.38	0.164705
3581.9	0.167924
3581.42	0.181981
3580.94	0.191507
3580.45	0.182239
3579.97	0.16623
3579.49	0.165682
3579.01	0.177997
3578.52	0.184132
3578.04	0.180162
3577.56	0.180659
3577.08	0.191241
3576.6	0.199439
3576.11	0.196478
3575.63	0.190431
3575.15	0.191279
3574.67	0.196545
3574.18	0.197327
3573.7	0.190103
3573.22	0.181285
3572.74	0.182435
3572.25	0.1978
3571.77	0.211946
3571.29	0.202317
3570.81	0.17413
3570.33	0.157103
3569.84	0.165009
3569.36	0.178182
3568.88	0.174225
3568.4	0.163292
3567.91	0.167916
3567.43	0.180393
3566.95	0.176591
3566.47	0.165925
3565.99	0.173238
3565.5	0.190082
3565.02	0.186915
3564.54	0.167828
3564.06	0.163992
3563.57	0.183726
3563.09	0.201455
3562.61	0.198307
3562.13	0.18648
3561.64	0.181061
3561.16	0.181859
3560.68	0.184614
3560.2	0.188237
3559.72	0.187022
3559.23	0.176278
3558.75	0.167468
3558.27	0.173983
3557.79	0.186759
3557.3	0.186263
3556.82	0.176493
3556.34	0.178992
3555.86	0.193796
3555.37	0.199752
3554.89	0.192861
3554.41	0.190779
3553.93	0.19506
3553.45	0.187313
3552.96	0.169394
3552.48	0.168983
3552	0.19036
3551.52	0.201618
3551.03	0.188318
3550.55	0.180986
3550.07	0.197839
3549.59	0.210502
3549.11	0.191425
3548.62	0.165447
3548.14	0.170222
3547.66	0.196489
3547.18	0.204102
3546.69	0.186369
3546.21	0.176897
3545.73	0.189413
3545.25	0.199212
3544.76	0.189064
3544.28	0.173568
3543.8	0.170784
3543.32	0.178485
3542.84	0.185695
3542.35	0.188764
3541.87	0.188621
3541.39	0.187641
3540.91	0.190704
3540.42	0.19816
3539.94	0.200714
3539.46	0.193076
3538.98	0.188225
3538.49	0.197181
3538.01	0.208072
3537.53	0.201413
3537.05	0.184077
3536.57	0.179899
3536.08	0.189789
3535.6	0.192176
3535.12	0.179608
3534.64	0.171183
3534.15	0.17741
3533.67	0.186146
3533.19	0.186022
3532.71	0.183275
3532.23	0.184415
3531.74	0.183694
3531.26	0.179863
3530.78	0.183553
3530.3	0.195416
3529.81	0.198795
3529.33	0.188961
3528.85	0.186164
3528.37	0.202945
3527.88	0.217737
3527.4	0.20775
3526.92	0.188881
3526.44	0.187931
3525.96	0.199266
3525.47	0.197747
3524.99	0.182936
3524.51	0.177531
3524.03	0.186751
3523.54	0.191977
3523.06	0.186104
3522.58	0.184081
3522.1	0.193187
3521.62	0.20022
3521.13	0.197965
3520.65	0.196611
3520.17	0.200098
3519.69	0.197358
3519.2	0.185434
3518.72	0.17919
3518.24	0.185748
3517.76	0.190642
3517.27	0.184452
3516.79	0.180794
3516.31	0.191424
3515.83	0.203197
3515.35	0.199655
3514.86	0.189845
3514.38	0.191588
3513.9	0.202008
3513.42	0.204836
3512.93	0.199725
3512.45	0.199901
3511.97	0.206658
3511.49	0.208695
3511	0.204077
3510.52	0.202534
3510.04	0.205039
3509.56	0.201006
3509.08	0.188772
3508.59	0.180683
3508.11	0.183532
3507.63	0.189566
3507.15	0.191286
3506.66	0.191864
3506.18	0.195372
3505.7	0.197821
3505.22	0.194432
3504.74	0.18932
3504.25	0.190768
3503.77	0.200561
3503.29	0.210918
3502.81	0.212149
3502.32	0.203808
3501.84	0.196198
3501.36	0.197918
3500.88	0.204019
3500.39	0.202982
3499.91	0.194584
3499.43	0.191395
3498.95	0.198389
3498.47	0.204199
3497.98	0.199786
3497.5	0.193405
3497.02	0.195578
3496.54	0.201084
3496.05	0.199631
3495.57	0.194945
3495.09	0.197237
3494.61	0.203456
3494.13	0.204067
3493.64	0.201175
3493.16	0.203398
3492.68	0.206509
3492.2	0.199667
3491.71	0.188006
3491.23	0.188007
3490.75	0.200436
3490.27	0.207666
3489.78	0.201822
3489.3	0.195307
3488.82	0.196804
3488.34	0.19792
3487.86	0.191266
3487.37	0.185494
3486.89	0.189784
3486.41	0.198443
3485.93	0.202308
3485.44	0.202362
3484.96	0.202597
3484.48	0.199424
3484	0.190047
3483.51	0.182581
3483.03	0.186499
3482.55	0.197067
3482.07	0.202264
3481.59	0.199564
3481.1	0.194673
3480.62	0.189957
3480.14	0.18394
3479.66	0.179026
3479.17	0.179935
3478.69	0.185992
3478.21	0.191447
3477.73	0.194287
3477.25	0.19693
3476.76	0.199145
3476.28	0.198419
3475.8	0.196429
3475.32	0.19764
3474.83	0.201381
3474.35	0.202709
3473.87	0.201395
3473.39	0.202946
3472.9	0.208372
3472.42	0.20994
3471.94	0.202315
3471.46	0.192317
3470.98	0.19221
3470.49	0.203739
3470.01	0.213581
3469.53	0.208909
3469.05	0.194353
3468.56	0.187001
3468.08	0.19488
3467.6	0.20762
3467.12	0.209497
3466.64	0.200344
3466.15	0.194857
3465.67	0.200396
3465.19	0.207989
3464.71	0.20609
3464.22	0.196964
3463.74	0.19136
3463.26	0.192484
3462.78	0.194218
3462.29	0.193438
3461.81	0.195593
3461.33	0.204059
3460.85	0.211064
3460.37	0.206442
3459.88	0.193074
3459.4	0.185612
3458.92	0.192591
3458.44	0.205015
3457.95	0.207639
3457.47	0.198375
3456.99	0.190751
3456.51	0.19576
3456.02	0.207769
3455.54	0.21235
3455.06	0.204731
3454.58	0.194672
3454.1	0.192294
3453.61	0.196921
3453.13	0.200901
3452.65	0.200038
3452.17	0.196762
3451.68	0.194862
3451.2	0.194976
3450.72	0.195274
3450.24	0.194422
3449.76	0.192777
3449.27	0.191749
3448.79	0.19246
3448.31	0.195172
3447.83	0.19982
3447.34	0.205935
3446.86	0.211588
3446.38	0.213495
3445.9	0.209723
3445.41	0.203155
3444.93	0.199777
3444.45	0.201632
3443.97	0.20463
3443.49	0.204161
3443	0.20108
3442.52	0.199635
3442.04	0.200996
3441.56	0.202849
3441.07	0.204738
3440.59	0.208847
3440.11	0.213752
3439.63	0.21275
3439.15	0.203095
3438.66	0.192633
3438.18	0.191182
3437.7	0.198067
3437.22	0.202581
3436.73	0.198327
3436.25	0.19099
3435.77	0.189402
3435.29	0.194381
3434.8	0.199903
3434.32	0.201789
3433.84	0.200403
3433.36	0.197698
3432.88	0.195751
3432.39	0.196616
3431.91	0.199994
3431.43	0.202319
3430.95	0.201763
3430.46	0.201783
3429.98	0.205342
3429.5	0.208389
3429.02	0.205398
3428.53	0.199529
3428.05	0.199765
3427.57	0.206865
3427.09	0.210697
3426.61	0.20614
3426.12	0.201836
3425.64	0.206615
3425.16	0.214408
3424.68	0.212424
3424.19	0.201484
3423.71	0.195166
3423.23	0.199545
3422.75	0.206351
3422.27	0.206748
3421.78	0.203524
3421.3	0.203185
3420.82	0.204231
3420.34	0.20219
3419.85	0.199818
3419.37	0.202535
3418.89	0.207082
3418.41	0.205333
3417.92	0.197205
3417.44	0.191954
3416.96	0.194705
3416.48	0.200108
3416	0.202077
3415.51	0.201672
3415.03	0.202668
3414.55	0.205065
3414.07	0.207271
3413.58	0.209705
3413.1	0.211709
3412.62	0.209388
3412.14	0.20152
3411.66	0.194047
3411.17	0.193413
3410.69	0.197518
3410.21	0.199043
3409.73	0.196476
3409.24	0.195625
3408.76	0.199896
3408.28	0.204586
3407.8	0.203311
3407.31	0.19719
3406.83	0.194392
3406.35	0.20009
3405.87	0.209919
3405.39	0.214594
3404.9	0.21078
3404.42	0.204733
3403.94	0.202552
3403.46	0.201492
3402.97	0.196232
3402.49	0.190734
3402.01	0.194772
3401.53	0.20871
3401.04	0.219537
3400.56	0.21719
3400.08	0.207352
3399.6	0.200765
3399.12	0.198971
3398.63	0.197411
3398.15	0.196136
3397.67	0.198682
3397.19	0.20355
3396.7	0.205412
3396.22	0.203458
3395.74	0.201051
3395.26	0.198683
3394.78	0.194648
3394.29	0.191522
3393.81	0.194645
3393.33	0.203339
3392.85	0.209709
3392.36	0.208056
3391.88	0.201339
3391.4	0.197062
3390.92	0.198546
3390.43	0.202246
3389.95	0.202306
3389.47	0.197601
3388.99	0.194353
3388.51	0.197619
3388.02	0.20254
3387.54	0.20011
3387.06	0.191502
3386.58	0.187698
3386.09	0.192126
3385.61	0.195457
3385.13	0.191504
3384.65	0.187802
3384.17	0.192286
3383.68	0.199238
3383.2	0.19838
3382.72	0.19116
3382.24	0.187918
3381.75	0.192218
3381.27	0.198293
3380.79	0.200172
3380.31	0.196339
3379.82	0.189212
3379.34	0.184306
3378.86	0.186476
3378.38	0.192626
3377.9	0.193706
3377.41	0.189084
3376.93	0.187858
3376.45	0.193123
3375.97	0.195684
3375.48	0.190677
3375	0.187659
3374.52	0.193742
3374.04	0.200356
3373.55	0.198632
3373.07	0.195617
3372.59	0.200438
3372.11	0.206536
3371.63	0.203283
3371.14	0.196616
3370.66	0.198557
3370.18	0.206034
3369.7	0.206822
3369.21	0.200308
3368.73	0.195125
3368.25	0.192436
3367.77	0.188925
3367.29	0.189628
3366.8	0.199184
3366.32	0.205903
3365.84	0.19613
3365.36	0.181414
3364.87	0.184993
3364.39	0.205862
3363.91	0.216907
3363.43	0.205603
3362.94	0.191662
3362.46	0.193029
3361.98	0.20212
3361.5	0.203887
3361.02	0.199923
3360.53	0.19932
3360.05	0.2002
3359.57	0.196219
3359.09	0.191185
3358.6	0.193266
3358.12	0.199677
3357.64	0.200525
3357.16	0.194
3356.68	0.188781
3356.19	0.192286
3355.71	0.202214
3355.23	0.209499
3354.75	0.207005
3354.26	0.197961
3353.78	0.193183
3353.3	0.197025
3352.82	0.201044
3352.33	0.197004
3351.85	0.191374
3351.37	0.19545
3350.89	0.205765
3350.41	0.207435
3349.92	0.198044
3349.44	0.190868
3348.96	0.192985
3348.48	0.195793
3347.99	0.191934
3347.51	0.188384
3347.03	0.192442
3346.55	0.1987
3346.06	0.198823
3345.58	0.195541
3345.1	0.196465
3344.62	0.200486
3344.14	0.200747
3343.65	0.196612
3343.17	0.19361
3342.69	0.193881
3342.21	0.19415
3341.72	0.192558
3341.24	0.191346
3340.76	0.192654
3340.28	0.19508
3339.8	0.195413
3339.31	0.193002
3338.83	0.191621
3338.35	0.195325
3337.87	0.201255
3337.38	0.200949
3336.9	0.192257
3336.42	0.185435
3335.94	0.189837
3335.45	0.198473
3334.97	0.196822
3334.49	0.185259
3334.01	0.179575
3333.53	0.186874
3333.04	0.196337
3332.56	0.196797
3332.08	0.192873
3331.6	0.194317
3331.11	0.199047
3330.63	0.198647
3330.15	0.193583
3329.67	0.192511
3329.19	0.197296
3328.7	0.200516
3328.22	0.197222
3327.74	0.191968
3327.26	0.191362
3326.77	0.194408
3326.29	0.19492
3325.81	0.190964
3325.33	0.188375
3324.84	0.19319
3324.36	0.202237
3323.88	0.203934
3323.4	0.192481
3322.92	0.177156
3322.43	0.171215
3321.95	0.177225
3321.47	0.186265
3320.99	0.190007
3320.5	0.189041
3320.02	0.188071
3319.54	0.189341
3319.06	0.192162
3318.57	0.19418
3318.09	0.19258
3317.61	0.188121
3317.13	0.186828
3316.65	0.192864
3316.16	0.200968
3315.68	0.201464
3315.2	0.193818
3314.72	0.187228
3314.23	0.187284
3313.75	0.190501
3313.27	0.191685
3312.79	0.189688
3312.31	0.184822
3311.82	0.178228
3311.34	0.175199
3310.86	0.180873
3310.38	0.190575
3309.89	0.192343
3309.41	0.184409
3308.93	0.180288
3308.45	0.18885
3307.96	0.199824
3307.48	0.19846
3307	0.188543
3306.52	0.18608
3306.04	0.19498
3305.55	0.201647
3305.07	0.195977
3304.59	0.186575
3304.11	0.186206
3303.62	0.192968
3303.14	0.194827
3302.66	0.188655
3302.18	0.184235
3301.7	0.188444
3301.21	0.195797
3300.73	0.197715
3300.25	0.193826
3299.77	0.18956
3299.28	0.187162
3298.8	0.185242
3298.32	0.183979
3297.84	0.18432
3297.35	0.184292
3296.87	0.182532
3296.39	0.183111
3295.91	0.189262
3295.43	0.194703
3294.94	0.190762
3294.46	0.18202
3293.98	0.182789
3293.5	0.19554
3293.01	0.204264
3292.53	0.196277
3292.05	0.181464
3291.57	0.177216
3291.08	0.184865
3290.6	0.191885
3290.12	0.191454
3289.64	0.18843
3289.16	0.186846
3288.67	0.184617
3288.19	0.181758
3287.71	0.182463
3287.23	0.186081
3286.74	0.185963
3286.26	0.18119
3285.78	0.18023
3285.3	0.187596
3284.82	0.195118
3284.33	0.193652
3283.85	0.187913
3283.37	0.188511
3282.89	0.194078
3282.4	0.193332
3281.92	0.184647
3281.44	0.18017
3280.96	0.186177
3280.47	0.191212
3279.99	0.183123
3279.51	0.169713
3279.03	0.169339
3278.55	0.185215
3278.06	0.200663
3277.58	0.202735
3277.1	0.196423
3276.62	0.190858
3276.13	0.186128
3275.65	0.18008
3275.17	0.176721
3274.69	0.178316
3274.21	0.178282
3273.72	0.172334
3273.24	0.169365
3272.76	0.17851
3272.28	0.192321
3271.79	0.195677
3271.31	0.188358
3270.83	0.183441
3270.35	0.184723
3269.86	0.18386
3269.38	0.178882
3268.9	0.178984
3268.42	0.186517
3267.94	0.190247
3267.45	0.183871
3266.97	0.177734
3266.49	0.181956
3266.01	0.189811
3265.52	0.188732
3265.04	0.179828
3264.56	0.174683
3264.08	0.178164
3263.59	0.184474
3263.11	0.187386
3262.63	0.186157
3262.15	0.182772
3261.67	0.180016
3261.18	0.180469
3260.7	0.183241
3260.22	0.184079
3259.74	0.181946
3259.25	0.181507
3258.77	0.184695
3258.29	0.186438
3257.81	0.183179
3257.33	0.1802
3256.84	0.182753
3256.36	0.18643
3255.88	0.184267
3255.4	0.179328
3254.91	0.180332
3254.43	0.187253
3253.95	0.191523
3253.47	0.188736
3252.98	0.183287
3252.5	0.179344
3252.02	0.176857
3251.54	0.175932
3251.06	0.176786
3250.57	0.175993
3250.09	0.170839
3249.61	0.166884
3249.13	0.172101
3248.64	0.183464
3248.16	0.188702
3247.68	0.183563
3247.2	0.178124
3246.72	0.180358
3246.23	0.184829
3245.75	0.183616
3245.27	0.179831
3244.79	0.181028
3244.3	0.186102
3243.82	0.18783
3243.34	0.185004
3242.86	0.182612
3242.37	0.18212
3241.89	0.180676
3241.41	0.178177
3240.93	0.177548
3240.45	0.178676
3239.96	0.178954
3239.48	0.179021
3239	0.181467
3238.52	0.18455
3238.03	0.184149
3237.55	0.181242
3237.07	0.179884
3236.59	0.178584
3236.1	0.172502
3235.62	0.164788
3235.14	0.165668
3234.66	0.177345
3234.18	0.188055
3233.69	0.18705
3233.21	0.178803
3232.73	0.175017
3232.25	0.178843
3231.76	0.183369
3231.28	0.182534
3230.8	0.177555
3230.32	0.173443
3229.84	0.173863
3229.35	0.179043
3228.87	0.185349
3228.39	0.187928
3227.91	0.18569
3227.42	0.181804
3226.94	0.179257
3226.46	0.178329
3225.98	0.178686
3225.49	0.180579
3225.01	0.18276
3224.53	0.182807
3224.05	0.180879
3223.57	0.179483
3223.08	0.17937
3222.6	0.179412
3222.12	0.179721
3221.64	0.180121
3221.15	0.177166
3220.67	0.169497
3220.19	0.164156
3219.71	0.168143
3219.23	0.175912
3218.74	0.175243
3218.26	0.16764
3217.78	0.167639
3217.3	0.178525
3216.81	0.184811
3216.33	0.175364
3215.85	0.162733
3215.37	0.163913
3214.88	0.176245
3214.4	0.183825
3213.92	0.181353
3213.44	0.177702
3212.96	0.178806
3212.47	0.181512
3211.99	0.181838
3211.51	0.179807
3211.03	0.176451
3210.54	0.173298
3210.06	0.173125
3209.58	0.175707
3209.1	0.176281
3208.61	0.172988
3208.13	0.170434
3207.65	0.171391
3207.17	0.172429
3206.69	0.172047
3206.2	0.174755
3205.72	0.180915
3205.24	0.182646
3204.76	0.176736
3204.27	0.171826
3203.79	0.173732
3203.31	0.174878
3202.83	0.168967
3202.35	0.163541
3201.86	0.166406
3201.38	0.170815
3200.9	0.168512
3200.42	0.166917
3199.93	0.176441
3199.45	0.190034
3198.97	0.192101
3198.49	0.182311
3198	0.173883
3197.52	0.172214
3197.04	0.172664
3196.56	0.17366
3196.08	0.176099
3195.59	0.175031
3195.11	0.167434
3194.63	0.162757
3194.15	0.170004
3193.66	0.17998
3193.18	0.17865
3192.7	0.170954
3192.22	0.172161
3191.74	0.180959
3191.25	0.181733
3190.77	0.172261
3190.29	0.167364
3189.81	0.173025
3189.32	0.178819
3188.84	0.178302
3188.36	0.177501
3187.88	0.179985
3187.39	0.180378
3186.91	0.176871
3186.43	0.174856
3185.95	0.175129
3185.47	0.172883
3184.98	0.169902
3184.5	0.17305
3184.02	0.179369
3183.54	0.17888
3183.05	0.172646
3182.57	0.17148
3182.09	0.175652
3181.61	0.173946
3181.12	0.165278
3180.64	0.162421
3180.16	0.169213
3179.68	0.173056
3179.2	0.166896
3178.71	0.161103
3178.23	0.166116
3177.75	0.176765
3177.27	0.182395
3176.78	0.180886
3176.3	0.174903
3175.82	0.166011
3175.34	0.159105
3174.86	0.161464
3174.37	0.171083
3173.89	0.176398
3173.41	0.172755
3172.93	0.167834
3172.44	0.167516
3171.96	0.167883
3171.48	0.166412
3171	0.168473
3170.51	0.176352
3170.03	0.18273
3169.55	0.181732
3169.07	0.177613
3168.59	0.175786
3168.1	0.17489
3167.62	0.172752
3167.14	0.171323
3166.66	0.171139
3166.17	0.169433
3165.69	0.167333
3165.21	0.169849
3164.73	0.175748
3164.25	0.176488
3163.76	0.169813
3163.28	0.164197
3162.8	0.165674
3162.32	0.169452
3161.83	0.168871
3161.35	0.165873
3160.87	0.165852
3160.39	0.169257
3159.9	0.172846
3159.42	0.174808
3158.94	0.174989
3158.46	0.173358
3157.98	0.170715
3157.49	0.167962
3157.01	0.164856
3156.53	0.16265
3156.05	0.164907
3155.56	0.170896
3155.08	0.17307
3154.6	0.167609
3154.12	0.162031
3153.63	0.164415
3153.15	0.170328
3152.67	0.170768
3152.19	0.167582
3151.71	0.168192
3151.22	0.170686
3150.74	0.16846
3150.26	0.165208
3149.78	0.169229
3149.29	0.175613
3148.81	0.172113
3148.33	0.162224
3147.85	0.16261
3147.37	0.175386
3146.88	0.181822
3146.4	0.171132
3145.92	0.157168
3145.44	0.155785
3144.95	0.164084
3144.47	0.170225
3143.99	0.172476
3143.51	0.175527
3143.02	0.177256
3142.54	0.173307
3142.06	0.168356
3141.58	0.169875
3141.1	0.175123
3140.61	0.175201
3140.13	0.169813
3139.65	0.167017
3139.17	0.16998
3138.68	0.172668
3138.2	0.170091
3137.72	0.165746
3137.24	0.165533
3136.75	0.169347
3136.27	0.172318
3135.79	0.172414
3135.31	0.172519
3134.83	0.175138
3134.34	0.178075
3133.86	0.177722
3133.38	0.174265
3132.9	0.170978
3132.41	0.169244
3131.93	0.167844
3131.45	0.166875
3130.97	0.167517
3130.49	0.167956
3130	0.1654
3129.52	0.16218
3129.04	0.163449
3128.56	0.167685
3128.07	0.167738
3127.59	0.163406
3127.11	0.163173
3126.63	0.169657
3126.14	0.173225
3125.66	0.167927
3125.18	0.162657
3124.7	0.166888
3124.22	0.174597
3123.73	0.17338
3123.25	0.164523
3122.77	0.160143
3122.29	0.164101
3121.8	0.169274
3121.32	0.170545
3120.84	0.170352
3120.36	0.17082
3119.88	0.170816
3119.39	0.171368
3118.91	0.174869
3118.43	0.178414
3117.95	0.176414
3117.46	0.170414
3116.98	0.16833
3116.5	0.172801
3116.02	0.178127
3115.53	0.179031
3115.05	0.176162
3114.57	0.172018
3114.09	0.168081
3113.61	0.167059
3113.12	0.170813
3112.64	0.175187
3112.16	0.173383
3111.68	0.165866
3111.19	0.161238
3110.71	0.164481
3110.23	0.170983
3109.75	0.173835
3109.26	0.172231
3108.78	0.17
3108.3	0.169295
3107.82	0.169571
3107.34	0.170066
3106.85	0.170366
3106.37	0.169967
3105.89	0.169309
3105.41	0.170051
3104.92	0.172334
3104.44	0.173019
3103.96	0.168939
3103.48	0.162179
3103	0.159298
3102.51	0.163619
3102.03	0.170619
3101.55	0.173129
3101.07	0.170798
3100.58	0.169861
3100.1	0.172734
3099.62	0.174153
3099.14	0.1704
3098.65	0.166323
3098.17	0.167617
3097.69	0.171161
3097.21	0.170262
3096.73	0.166172
3096.24	0.165915
3095.76	0.170409
3095.28	0.17313
3094.8	0.170426
3094.31	0.165995
3093.83	0.163904
3093.35	0.164304
3092.87	0.166733
3092.39	0.170669
3091.9	0.172742
3091.42	0.170031
3090.94	0.165839
3090.46	0.165798
3089.97	0.168413
3089.49	0.167205
3089.01	0.162242
3088.53	0.161079
3088.04	0.167218
3087.56	0.175098
3087.08	0.178447
3086.6	0.176821
3086.12	0.172428
3085.63	0.167037
3085.15	0.163588
3084.67	0.164713
3084.19	0.168343
3083.7	0.170191
3083.22	0.170128
3082.74	0.170398
3082.26	0.169848
3081.77	0.167103
3081.29	0.166257
3080.81	0.170379
3080.33	0.172794
3079.85	0.166257
3079.36	0.157967
3078.88	0.160984
3078.4	0.172428
3077.92	0.176047
3077.43	0.167585
3076.95	0.161644
3076.47	0.167431
3075.99	0.175044
3075.51	0.17394
3075.02	0.169598
3074.54	0.171175
3074.06	0.174609
3073.58	0.171252
3073.09	0.164325
3072.61	0.163548
3072.13	0.168771
3071.65	0.171866
3071.16	0.170654
3070.68	0.170243
3070.2	0.172124
3069.72	0.171794
3069.24	0.16781
3068.75	0.165155
3068.27	0.167552
3067.79	0.172383
3067.31	0.174916
3066.82	0.173947
3066.34	0.171771
3065.86	0.170348
3065.38	0.169533
3064.9	0.168497
3064.41	0.16748
3063.93	0.167383
3063.45	0.168081
3062.97	0.168702
3062.48	0.16942
3062	0.170693
3061.52	0.1708
3061.04	0.167813
3060.55	0.16447
3060.07	0.165866
3059.59	0.170682
3059.11	0.171391
3058.63	0.166395
3058.14	0.16419
3057.66	0.170283
3057.18	0.177841
3056.7	0.17827
3056.21	0.174043
3055.73	0.172124
3055.25	0.171306
3054.77	0.166619
3054.28	0.160783
3053.8	0.160042
3053.32	0.162854
3052.84	0.163225
3052.36	0.162051
3051.87	0.164463
3051.39	0.169006
3050.91	0.170195
3050.43	0.168995
3049.94	0.169971
3049.46	0.170997
3048.98	0.167326
3048.5	0.162958
3048.02	0.165508
3047.53	0.171848
3047.05	0.172412
3046.57	0.1676
3046.09	0.166982
3045.6	0.172002
3045.12	0.173728
3044.64	0.169161
3044.16	0.166513
3043.67	0.170848
3043.19	0.176423
3042.71	0.177185
3042.23	0.174247
3041.75	0.170546
3041.26	0.166941
3040.78	0.16568
3040.3	0.169018
3039.82	0.17294
3039.33	0.170931
3038.85	0.164968
3038.37	0.163013
3037.89	0.165358
3037.41	0.164532
3036.92	0.159508
3036.44	0.158478
3035.96	0.164846
3035.48	0.171668
3034.99	0.173662
3034.51	0.174401
3034.03	0.177088
3033.55	0.178063
3033.06	0.174577
3032.58	0.170868
3032.1	0.171397
3031.62	0.174482
3031.14	0.176399
3030.65	0.176145
3030.17	0.173519
3029.69	0.16851
3029.21	0.164596
3028.72	0.166294
3028.24	0.17155
3027.76	0.173153
3027.28	0.169644
3026.79	0.167481
3026.31	0.170536
3025.83	0.174503
3025.35	0.17438
3024.87	0.171748
3024.38	0.171066
3023.9	0.173261
3023.42	0.175738
3022.94	0.175696
3022.45	0.172495
3021.97	0.16923
3021.49	0.170598
3021.01	0.176254
3020.53	0.179438
3020.04	0.176056
3019.56	0.171427
3019.08	0.17243
3018.6	0.177048
3018.11	0.178585
3017.63	0.17635
3017.15	0.174364
3016.67	0.173071
3016.18	0.171059
3015.7	0.171469
3015.22	0.177125
3014.74	0.182245
3014.26	0.178984
3013.77	0.170782
3013.29	0.168442
3012.81	0.174147
3012.33	0.17987
3011.84	0.180459
3011.36	0.178625
3010.88	0.17647
3010.4	0.172667
3009.92	0.169303
3009.43	0.171606
3008.95	0.178683
3008.47	0.18341
3007.99	0.182866
3007.5	0.181058
3007.02	0.180593
3006.54	0.179618
3006.06	0.178215
3005.57	0.179493
3005.09	0.182893
3004.61	0.183768
3004.13	0.181532
3003.65	0.180941
3003.16	0.18361
3002.68	0.185177
3002.2	0.182882
3001.72	0.18008
3001.23	0.180765
3000.75	0.18453
3000.27	0.188128
2999.79	0.188748
2999.3	0.186348
2998.82	0.185087
2998.34	0.189658
2997.86	0.197567
2997.38	0.199801
2996.89	0.194208
2996.41	0.191386
2995.93	0.199133
2995.45	0.209143
2994.96	0.209003
2994.48	0.202369
2994	0.203068
2993.52	0.212745
2993.04	0.21952
2992.55	0.218155
2992.07	0.21712
2991.59	0.222704
2991.11	0.230101
2990.62	0.234004
2990.14	0.236782
2989.66	0.241042
2989.18	0.24382
2988.69	0.243669
2988.21	0.244984
2987.73	0.250339
2987.25	0.255807
2986.77	0.258099
2986.28	0.260166
2985.8	0.265127
2985.32	0.27076
2984.84	0.273908
2984.35	0.275711
2983.87	0.27929
2983.39	0.28541
2982.91	0.29214
2982.43	0.29598
2981.94	0.294182
2981.46	0.289548
2980.98	0.289944
2980.5	0.298177
2980.01	0.305608
2979.53	0.303238
2979.05	0.296072
2978.57	0.295449
2978.08	0.301547
2977.6	0.304319
2977.12	0.30051
2976.64	0.297777
2976.16	0.300469
2975.67	0.303478
2975.19	0.303227
2974.71	0.303547
2974.23	0.306132
2973.74	0.305514
2973.26	0.299502
2972.78	0.29572
2972.3	0.3008
2971.81	0.309775
2971.33	0.312694
2970.85	0.308295
2970.37	0.303401
2969.89	0.301736
2969.4	0.300406
2968.92	0.296261
2968.44	0.290486
2967.96	0.286053
2967.47	0.283716
2966.99	0.282122
2966.51	0.280103
2966.03	0.27747
2965.55	0.274315
2965.06	0.270878
2964.58	0.268331
2964.1	0.267901
2963.62	0.26778
2963.13	0.263564
2962.65	0.254523
2962.17	0.246916
2961.69	0.246549
2961.2	0.249532
2960.72	0.246987
2960.24	0.238627
2959.76	0.233522
2959.28	0.23535
2958.79	0.236271
2958.31	0.229895
2957.83	0.222664
2957.35	0.223609
2956.86	0.229441
2956.38	0.229361
2955.9	0.221833
2955.42	0.216338
2954.94	0.217871
2954.45	0.220168
2953.97	0.216932
2953.49	0.211695
2953.01	0.211016
2952.52	0.213609
2952.04	0.212903
2951.56	0.208352
2951.08	0.206973
2950.59	0.212498
2950.11	0.218607
2949.63	0.217097
2949.15	0.209061
2948.67	0.20293
2948.18	0.203141
2947.7	0.206136
2947.22	0.208183
2946.74	0.210713
2946.25	0.215037
2945.77	0.217748
2945.29	0.216383
2944.81	0.215309
2944.32	0.219608
2943.84	0.226273
2943.36	0.228004
2942.88	0.224001
2942.4	0.220357
2941.91	0.22018
2941.43	0.220625
2940.95	0.219979
2940.47	0.220775
2939.98	0.22394
2939.5	0.225837
2939.02	0.223745
2938.54	0.220123
2938.06	0.218734
2937.57	0.220211
2937.09	0.223091
2936.61	0.225836
2936.13	0.226829
2935.64	0.225281
2935.16	0.222873
2934.68	0.221917
2934.2	0.221893
2933.71	0.220654
2933.23	0.218478
2932.75	0.21735
2932.27	0.216989
2931.79	0.215455
2931.3	0.213258
2930.82	0.212979
2930.34	0.215064
2929.86	0.217545
2929.37	0.218938
2928.89	0.218629
2928.41	0.215981
2927.93	0.21212
2927.45	0.210344
2926.96	0.211134
2926.48	0.210048
2926	0.205306
2925.52	0.202821
2925.03	0.207411
2924.55	0.213194
2924.07	0.211272
2923.59	0.204037
2923.1	0.201444
2922.62	0.205319
2922.14	0.207456
2921.66	0.203542
2921.18	0.199286
2920.69	0.199887
2920.21	0.2026
2919.73	0.202563
2919.25	0.199717
2918.76	0.196828
2918.28	0.195497
2917.8	0.196315
2917.32	0.198504
2916.83	0.19908
2916.35	0.196931
2915.87	0.196214
2915.39	0.200259
2914.91	0.204656
2914.42	0.20338
2913.94	0.199446
2913.46	0.200454
2912.98	0.205439
2912.49	0.205712
2912.01	0.198953
2911.53	0.192923
2911.05	0.193297
2910.57	0.196387
2910.08	0.19684
2909.6	0.195273
2909.12	0.194422
2908.64	0.19386
2908.15	0.192794
2907.67	0.193373
2907.19	0.196898
2906.71	0.200095
2906.22	0.199306
2905.74	0.196108
2905.26	0.195206
2904.78	0.198114
2904.3	0.201285
2903.81	0.200648
2903.33	0.196484
2902.85	0.193348
2902.37	0.194602
2901.88	0.197594
2901.4	0.197032
2900.92	0.192827
2900.44	0.190575
2899.96	0.192897
2899.47	0.195799
2898.99	0.196138
2898.51	0.196715
2898.03	0.199404
2897.54	0.199554
2897.06	0.193887
2896.58	0.188794
2896.1	0.19195
2895.61	0.199834
2895.13	0.202544
2894.65	0.198916
2894.17	0.197473
2893.69	0.202077
2893.2	0.206693
2892.72	0.205679
2892.24	0.201224
2891.76	0.198036
2891.27	0.19735
2890.79	0.198552
2890.31	0.201197
2889.83	0.203239
2889.34	0.202129
2888.86	0.199404
2888.38	0.199403
2887.9	0.202454
2887.42	0.203881
2886.93	0.201386
2886.45	0.198449
2885.97	0.198298
2885.49	0.199484
2885	0.199306
2884.52	0.198534
2884.04	0.1999
2883.56	0.203869
2883.08	0.207694
2882.59	0.208061
2882.11	0.204462
2881.63	0.200278
2881.15	0.19964
2880.66	0.202271
2880.18	0.203492
2879.7	0.201014
2879.22	0.198703
2878.73	0.200494
2878.25	0.204137
2877.77	0.204959
2877.29	0.203046
2876.81	0.201631
2876.32	0.200683
2875.84	0.197957
2875.36	0.194785
2874.88	0.194771
2874.39	0.197314
2873.91	0.198374
2873.43	0.19772
2872.95	0.199446
2872.47	0.20385
2871.98	0.204703
2871.5	0.198108
2871.02	0.190026
2870.54	0.189808
2870.05	0.198076
2869.57	0.204942
2869.09	0.201397
2868.61	0.19025
2868.12	0.182754
2867.64	0.184778
2867.16	0.19058
2866.68	0.192107
2866.2	0.189841
2865.71	0.189911
2865.23	0.193179
2864.75	0.194268
2864.27	0.191107
2863.78	0.187988
2863.3	0.187573
2862.82	0.187216
2862.34	0.1856
2861.85	0.185948
2861.37	0.188984
2860.89	0.189558
2860.41	0.184907
2859.93	0.180303
2859.44	0.180724
2858.96	0.182838
2858.48	0.181213
2858	0.17756
2857.51	0.177026
2857.03	0.179347
2856.55	0.180671
2856.07	0.181172
2855.59	0.183791
2855.1	0.187253
2854.62	0.18722
2854.14	0.183606
2853.66	0.180701
2853.17	0.180605
2852.69	0.18173
2852.21	0.182929
2851.73	0.184275
2851.24	0.184412
2850.76	0.181893
2850.28	0.178581
2849.8	0.177292
2849.32	0.177162
2848.83	0.175515
2848.35	0.173132
2847.87	0.173046
2847.39	0.175123
2846.9	0.176492
2846.42	0.176452
2845.94	0.176696
2845.46	0.17751
2844.98	0.17783
2844.49	0.17783
2844.01	0.177783
2843.53	0.176074
2843.05	0.17235
2842.56	0.170527
2842.08	0.173992
2841.6	0.179573
2841.12	0.181178
2840.63	0.178584
2840.15	0.176789
2839.67	0.177219
2839.19	0.176312
2838.71	0.173328
2838.22	0.172451
2837.74	0.174931
2837.26	0.175524
2836.78	0.170931
2836.29	0.166505
2835.81	0.168996
2835.33	0.176438
2834.85	0.180958
2834.36	0.179468
2833.88	0.175774
2833.4	0.173236
2832.92	0.171144
2832.44	0.169104
2831.95	0.169385
2831.47	0.172633
2830.99	0.175665
2830.51	0.176368
2830.02	0.176769
2829.54	0.178578
2829.06	0.179348
2828.58	0.176787
2828.1	0.173577
2827.61	0.173486
2827.13	0.175105
2826.65	0.174401
2826.17	0.171664
2825.68	0.170727
2825.2	0.172414
2824.72	0.174299
2824.24	0.176093
2823.75	0.179047
2823.27	0.180499
2822.79	0.176146
2822.31	0.168491
2821.83	0.165723
2821.34	0.170119
2820.86	0.174509
2820.38	0.173334
2819.9	0.170148
2819.41	0.169999
2818.93	0.171302
2818.45	0.170686
2817.97	0.169787
2817.49	0.171301
2817	0.173302
2816.52	0.173308
2816.04	0.173255
2815.56	0.174746
2815.07	0.17431
2814.59	0.169731
2814.11	0.166059
2813.63	0.167902
2813.14	0.170801
2812.66	0.168233
2812.18	0.163344
2811.7	0.164072
2811.22	0.169473
2810.73	0.171377
2810.25	0.168299
2809.77	0.167521
2809.29	0.172132
2808.8	0.175802
2808.32	0.173261
2807.84	0.168376
2807.36	0.167164
2806.87	0.169547
2806.39	0.171569
2805.91	0.171204
2805.43	0.168882
2804.95	0.165576
2804.46	0.163197
2803.98	0.163816
2803.5	0.166693
2803.02	0.168816
2802.53	0.169032
2802.05	0.169006
2801.57	0.169572
2801.09	0.169449
2800.61	0.168266
2800.12	0.167466
2799.64	0.16735
2799.16	0.166505
2798.68	0.165025
2798.19	0.165071
2797.71	0.167131
2797.23	0.168695
2796.75	0.167987
2796.26	0.166688
2795.78	0.167332
2795.3	0.169937
2794.82	0.172477
2794.34	0.17343
2793.85	0.17287
2793.37	0.17171
2792.89	0.170618
2792.41	0.169488
2791.92	0.168066
2791.44	0.166989
2790.96	0.167196
2790.48	0.168098
2790	0.167972
2789.51	0.166629
2789.03	0.165872
2788.55	0.166442
2788.07	0.166564
2787.58	0.164909
2787.1	0.163121
2786.62	0.163707
2786.14	0.166554
2785.65	0.16889
2785.17	0.167994
2784.69	0.164007
2784.21	0.160688
2783.73	0.162101
2783.24	0.167176
2782.76	0.169452
2782.28	0.165429
2781.8	0.160593
2781.31	0.162184
2780.83	0.168099
2780.35	0.169652
2779.87	0.164841
2779.38	0.160898
2778.9	0.16287
2778.42	0.167286
2777.94	0.169273
2777.46	0.169018
2776.97	0.168039
2776.49	0.165852
2776.01	0.16368
2775.53	0.164952
2775.04	0.168834
2774.56	0.169821
2774.08	0.166784
2773.6	0.165616
2773.12	0.168976
2772.63	0.171188
2772.15	0.168421
2771.67	0.165808
2771.19	0.168451
2770.7	0.172385
2770.22	0.171664
2769.74	0.168309
2769.26	0.167474
2768.77	0.168064
2768.29	0.166377
2767.81	0.164566
2767.33	0.16692
2766.85	0.171193
2766.36	0.171734
2765.88	0.168896
2765.4	0.167826
2764.92	0.169328
2764.43	0.169585
2763.95	0.167636
2763.47	0.166321
2762.99	0.166497
2762.51	0.166313
2762.02	0.165863
2761.54	0.166843
2761.06	0.168111
2760.58	0.166867
2760.09	0.163938
2759.61	0.162879
2759.13	0.1643
2758.65	0.165525
2758.16	0.165618
2757.68	0.166153
2757.2	0.16713
2756.72	0.166425
2756.24	0.163949
2755.75	0.162485
2755.27	0.163666
2754.79	0.165992
2754.31	0.167483
2753.82	0.168031
2753.34	0.168228
2752.86	0.167749
2752.38	0.166013
2751.89	0.163681
2751.41	0.162572
2750.93	0.163687
2750.45	0.165576
2749.97	0.166062
2749.48	0.165725
2749	0.167308
2748.52	0.170482
2748.04	0.170734
2747.55	0.166451
2747.07	0.163269
2746.59	0.166181
2746.11	0.171031
2745.63	0.170424
2745.14	0.165358
2744.66	0.163221
2744.18	0.165331
2743.7	0.16579
2743.21	0.162764
2742.73	0.161653
2742.25	0.16501
2741.77	0.168059
2741.28	0.167268
2740.8	0.165599
2740.32	0.165614
2739.84	0.165095
2739.36	0.163327
2738.87	0.164295
2738.39	0.169045
2737.91	0.171773
2737.43	0.168563
2736.94	0.16412
2736.46	0.164234
2735.98	0.167149
2735.5	0.167763
2735.02	0.166004
2734.53	0.165487
2734.05	0.166976
2733.57	0.168265
2733.09	0.16824
2732.6	0.16743
2732.12	0.166433
2731.64	0.166077
2731.16	0.166757
2730.67	0.166515
2730.19	0.163202
2729.71	0.159266
2729.23	0.159718
2728.75	0.164404
2728.26	0.167616
2727.78	0.166678
2727.3	0.165437
2726.82	0.166987
2726.33	0.168725
2725.85	0.167581
2725.37	0.16509
2724.89	0.16405
2724.4	0.164229
2723.92	0.16415
2723.44	0.163661
2722.96	0.162859
2722.48	0.16177
2721.99	0.161842
2721.51	0.164039
2721.03	0.165634
2720.55	0.163541
2720.06	0.160387
2719.58	0.161261
2719.1	0.165128
2718.62	0.166305
2718.14	0.164199
2717.65	0.164052
2717.17	0.167023
2716.69	0.167903
2716.21	0.164637
2715.72	0.162165
2715.24	0.163827
2714.76	0.166362
2714.28	0.166414
2713.79	0.165593
2713.31	0.165859
2712.83	0.165951
2712.35	0.165195
2711.87	0.165195
2711.38	0.165567
2710.9	0.163847
2710.42	0.161238
2709.94	0.162127
2709.45	0.166372
2708.97	0.16858
2708.49	0.166675
2708.01	0.164542
2707.52	0.164342
2707.04	0.163672
2706.56	0.161998
2706.08	0.162387
2705.6	0.164847
2705.11	0.165435
2704.63	0.163974
2704.15	0.165085
2703.67	0.169211
2703.18	0.17067
2702.7	0.167379
2702.22	0.164621
2701.74	0.165602
2701.26	0.166546
2700.77	0.164638
2700.29	0.163314
2699.81	0.165525
2699.33	0.168565
2698.84	0.169352
2698.36	0.168871
2697.88	0.168217
2697.4	0.16638
2696.91	0.164581
2696.43	0.16616
2695.95	0.169847
2695.47	0.170055
2694.99	0.166122
2694.5	0.163941
2694.02	0.165911
2693.54	0.167461
2693.06	0.165996
2692.57	0.165249
2692.09	0.167358
2691.61	0.168675
2691.13	0.167104
2690.65	0.166166
2690.16	0.167895
2689.68	0.169045
2689.2	0.167796
2688.72	0.167102
2688.23	0.168238
2687.75	0.168377
2687.27	0.167331
2686.79	0.168727
2686.3	0.1717
2685.82	0.170245
2685.34	0.164262
2684.86	0.161674
2684.38	0.165441
2683.89	0.168096
2683.41	0.164564
2682.93	0.161046
2682.45	0.164193
2681.96	0.169934
2681.48	0.170509
2681	0.166312
2680.52	0.163196
2680.03	0.163383
2679.55	0.165398
2679.07	0.168142
2678.59	0.169786
2678.11	0.167452
2677.62	0.162514
2677.14	0.160877
2676.66	0.1642
2676.18	0.166753
2675.69	0.164838
2675.21	0.162533
2674.73	0.163565
2674.25	0.164982
2673.77	0.163934
2673.28	0.163373
2672.8	0.165354
2672.32	0.166096
2671.84	0.16373
2671.35	0.163629
2670.87	0.168807
2670.39	0.17256
2669.91	0.168836
2669.42	0.163259
2668.94	0.164439
2668.46	0.170165
2667.98	0.1715
2667.5	0.16708
2667.01	0.163377
2666.53	0.163275
2666.05	0.163805
2665.57	0.163683
2665.08	0.164723
2664.6	0.166254
2664.12	0.165573
2663.64	0.163857
2663.16	0.164873
2662.67	0.167916
2662.19	0.168607
2661.71	0.166558
2661.23	0.165753
2660.74	0.167052
2660.26	0.16678
2659.78	0.164055
2659.3	0.163118
2658.81	0.165981
2658.33	0.168361
2657.85	0.166284
2657.37	0.162625
2656.89	0.16272
2656.4	0.166381
2655.92	0.168757
2655.44	0.167942
2654.96	0.167316
2654.47	0.169411
2653.99	0.171529
2653.51	0.169839
2653.03	0.165445
2652.54	0.163044
2652.06	0.164347
2651.58	0.166529
2651.1	0.167169
2650.62	0.16731
2650.13	0.168311
2649.65	0.168963
2649.17	0.167798
2648.69	0.165798
2648.2	0.164665
2647.72	0.164696
2647.24	0.166114
2646.76	0.169553
2646.28	0.173209
2645.79	0.172988
2645.31	0.168222
2644.83	0.163837
2644.35	0.163652
2643.86	0.165069
2643.38	0.164331
2642.9	0.16308
2642.42	0.164746
2641.93	0.167666
2641.45	0.167717
2640.97	0.165541
2640.49	0.164966
2640.01	0.16604
2639.52	0.165883
2639.04	0.165115
2638.56	0.166891
2638.08	0.16997
2637.59	0.169491
2637.11	0.165148
2636.63	0.162283
2636.15	0.163618
2635.67	0.165621
2635.18	0.164925
2634.7	0.163119
2634.22	0.162855
2633.74	0.163507
2633.25	0.163402
2632.77	0.163057
2632.29	0.163634
2631.81	0.164472
2631.32	0.164364
2630.84	0.163813
2630.36	0.164244
2629.88	0.165809
2629.4	0.16703
2628.91	0.166467
2628.43	0.164583
2627.95	0.163572
2627.47	0.164599
2626.98	0.165883
2626.5	0.165214
2626.02	0.163819
2625.54	0.164535
2625.05	0.166577
2624.57	0.166492
2624.09	0.164689
2623.61	0.165603
2623.13	0.169585
2622.64	0.170906
2622.16	0.166871
2621.68	0.162734
2621.2	0.163374
2620.71	0.165944
2620.23	0.165711
2619.75	0.164045
2619.27	0.164667
2618.79	0.166574
2618.3	0.166909
2617.82	0.166696
2617.34	0.16753
2616.86	0.166749
2616.37	0.162568
2615.89	0.159857
2615.41	0.163419
2614.93	0.169258
2614.44	0.16984
2613.96	0.165702
2613.48	0.163435
2613	0.164371
2612.52	0.163912
2612.03	0.16105
2611.55	0.160179
2611.07	0.163058
2610.59	0.16614
2610.1	0.16664
2609.62	0.165543
2609.14	0.164185
2608.66	0.163071
2608.18	0.16365
2607.69	0.166234
2607.21	0.167299
2606.73	0.164221
2606.25	0.160751
2605.76	0.161715
2605.28	0.164568
2604.8	0.163328
2604.32	0.159129
2603.83	0.158433
2603.35	0.161666
2602.87	0.162583
2602.39	0.159816
2601.91	0.159727
2601.42	0.165068
2600.94	0.169473
2600.46	0.167451
2599.98	0.162758
2599.49	0.16188
2599.01	0.16445
2598.53	0.165694
2598.05	0.164395
2597.56	0.163275
2597.08	0.163614
2596.6	0.163957
2596.12	0.163415
2595.64	0.163
2595.15	0.16381
2594.67	0.165463
2594.19	0.166371
2593.71	0.165258
2593.22	0.163006
2592.74	0.16231
2592.26	0.164116
2591.78	0.165518
2591.3	0.163523
2590.81	0.159887
2590.33	0.158904
2589.85	0.161076
2589.37	0.162523
2588.88	0.161325
2588.4	0.160467
2587.92	0.162775
2587.44	0.166153
2586.95	0.166517
2586.47	0.163621
2585.99	0.161128
2585.51	0.161532
2585.03	0.163248
2584.54	0.16338
2584.06	0.161746
2583.58	0.16093
2583.1	0.162659
2582.61	0.165577
2582.13	0.167244
2581.65	0.166956
2581.17	0.165564
2580.69	0.16373
2580.2	0.162068
2579.72	0.161886
2579.24	0.163619
2578.76	0.16529
2578.27	0.164877
2577.79	0.163505
2577.31	0.163573
2576.83	0.164625
2576.34	0.164338
2575.86	0.162851
2575.38	0.162384
2574.9	0.162989
2574.42	0.162813
2573.93	0.162324
2573.45	0.163745
2572.97	0.166258
2572.49	0.166607
2572	0.164973
2571.52	0.16495
2571.04	0.166773
2570.56	0.166315
2570.07	0.162428
2569.59	0.159531
2569.11	0.160457
2568.63	0.162294
2568.15	0.162072
2567.66	0.161428
2567.18	0.162441
2566.7	0.163667
2566.22	0.163718
2565.73	0.164244
2565.25	0.16597
2564.77	0.166206
2564.29	0.16378
2563.81	0.162034
2563.32	0.163367
2562.84	0.165152
2562.36	0.1647
2561.88	0.163968
2561.39	0.165343
2560.91	0.167026
2560.43	0.166717
2559.95	0.165853
2559.46	0.165919
2558.98	0.164925
2558.5	0.161915
2558.02	0.160635
2557.54	0.163653
2557.05	0.166938
2556.57	0.165731
2556.09	0.162441
2555.61	0.162372
2555.12	0.164941
2554.64	0.165396
2554.16	0.163216
2553.68	0.162097
2553.2	0.16278
2552.71	0.162265
2552.23	0.159918
2551.75	0.158813
2551.27	0.160332
2550.78	0.162185
2550.3	0.16249
2549.82	0.162018
2549.34	0.161892
2548.85	0.162167
2548.37	0.162922
2547.89	0.164048
2547.41	0.164192
2546.93	0.162565
2546.44	0.161137
2545.96	0.162178
2545.48	0.164449
2545	0.164695
2544.51	0.16254
2544.03	0.160738
2543.55	0.160828
2543.07	0.161577
2542.58	0.16175
2542.1	0.161805
2541.62	0.162369
2541.14	0.163068
2540.66	0.163237
2540.17	0.162604
2539.69	0.161405
2539.21	0.160734
2538.73	0.161899
2538.24	0.164334
2537.76	0.165431
2537.28	0.1639
2536.8	0.161863
2536.32	0.161876
2535.83	0.163433
2535.35	0.164338
2534.87	0.164017
2534.39	0.163416
2533.9	0.162797
2533.42	0.161877
2532.94	0.161166
2532.46	0.161142
2531.97	0.161102
2531.49	0.160654
2531.01	0.161019
2530.53	0.162785
2530.05	0.163987
2529.56	0.16295
2529.08	0.161518
2528.6	0.162539
2528.12	0.16515
2527.63	0.166054
2527.15	0.164879
2526.67	0.164567
2526.19	0.16626
2525.71	0.167316
2525.22	0.165585
2524.74	0.162581
2524.26	0.160829
2523.78	0.160547
2523.29	0.160754
2522.81	0.161573
2522.33	0.163322
2521.85	0.164793
2521.36	0.164596
2520.88	0.16341
2520.4	0.162994
2519.92	0.163423
2519.44	0.163287
2518.95	0.162351
2518.47	0.162017
2517.99	0.162873
2517.51	0.163656
2517.02	0.163255
2516.54	0.162209
2516.06	0.16149
2515.58	0.16119
2515.09	0.161232
2514.61	0.162016
2514.13	0.163368
2513.65	0.164116
2513.17	0.163782
2512.68	0.163419
2512.2	0.163604
2511.72	0.163269
2511.24	0.161997
2510.75	0.161661
2510.27	0.163477
2509.79	0.165106
2509.31	0.163613
2508.83	0.160387
2508.34	0.159664
2507.86	0.16247
2507.38	0.165416
2506.9	0.165645
2506.41	0.163853
2505.93	0.161794
2505.45	0.15994
2504.97	0.158653
2504.48	0.158967
2504	0.160872
2503.52	0.162723
2503.04	0.163356
2502.56	0.163186
2502.07	0.162726
2501.59	0.162107
2501.11	0.16211
2500.63	0.163294
2500.14	0.164139
2499.66	0.162825
2499.18	0.16077
2498.7	0.161096
2498.22	0.163533
2497.73	0.164555
2497.25	0.163011
2496.77	0.161715
2496.29	0.162466
2495.8	0.163587
2495.32	0.163683
2494.84	0.163799
2494.36	0.164264
2493.87	0.163509
2493.39	0.161701
2492.91	0.161357
2492.43	0.162532
2491.95	0.161992
2491.46	0.159358
2490.98	0.159067
2490.5	0.163081
2490.02	0.16654
2489.53	0.164686
2489.05	0.159967
2488.57	0.157676
2488.09	0.158447
2487.6	0.159755
2487.12	0.16128
2486.64	0.163543
2486.16	0.164213
2485.68	0.161563
2485.19	0.159136
2484.71	0.161207
2484.23	0.165386
2483.75	0.165503
2483.26	0.16132
2482.78	0.158952
2482.3	0.161383
2481.82	0.164593
2481.34	0.164546
2480.85	0.162605
2480.37	0.161936
2479.89	0.16265
2479.41	0.163239
2478.92	0.163722
2478.44	0.164668
2477.96	0.165266
2477.48	0.164685
2476.99	0.163747
2476.51	0.163367
2476.03	0.162688
2475.55	0.160667
2475.07	0.158532
2474.58	0.158616
2474.1	0.161041
2473.62	0.163396
2473.14	0.163829
2472.65	0.16304
2472.17	0.16264
2471.69	0.162678
2471.21	0.16207
2470.73	0.160821
2470.24	0.160253
2469.76	0.160886
2469.28	0.16157
2468.8	0.161356
2468.31	0.160846
2467.83	0.160712
2467.35	0.160285
2466.87	0.159035
2466.38	0.158293
2465.9	0.159612
2465.42	0.162147
2464.94	0.163531
2464.46	0.163178
2463.97	0.162703
2463.49	0.163107
2463.01	0.163465
2462.53	0.1626
2462.04	0.160692
2461.56	0.158955
2461.08	0.15869
2460.6	0.160308
2460.11	0.162553
2459.63	0.163438
2459.15	0.162842
2458.67	0.163021
2458.19	0.165108
2457.7	0.166685
2457.22	0.164959
2456.74	0.16119
2456.26	0.159174
2455.77	0.16012
2455.29	0.161681
2454.81	0.161693
2454.33	0.160487
2453.85	0.159357
2453.36	0.158952
2452.88	0.15937
2452.4	0.160254
2451.92	0.160771
2451.43	0.160624
2450.95	0.160589
2450.47	0.160966
2449.99	0.160648
2449.5	0.159143
2449.02	0.158175
2448.54	0.159343
2448.06	0.161491
2447.58	0.162443
2447.09	0.162183
2446.61	0.162169
2446.13	0.162622
2445.65	0.162681
2445.16	0.162324
2444.68	0.162066
2444.2	0.161669
2443.72	0.160839
2443.24	0.160159
2442.75	0.159961
2442.27	0.159802
2441.79	0.160058
2441.31	0.161785
2440.82	0.163782
2440.34	0.162921
2439.86	0.159271
2439.38	0.157417
2438.89	0.159757
2438.41	0.162499
2437.93	0.161659
2437.45	0.159418
2436.97	0.159812
2436.48	0.161737
2436	0.161588
2435.52	0.160255
2435.04	0.161362
2434.55	0.164223
2434.07	0.164747
2433.59	0.162654
2433.11	0.161822
2432.62	0.163113
2432.14	0.162872
2431.66	0.159517
2431.18	0.156661
2430.7	0.157744
2430.21	0.161418
2429.73	0.163963
2429.25	0.163713
2428.77	0.161799
2428.28	0.160378
2427.8	0.160954
2427.32	0.16306
2426.84	0.164441
2426.36	0.163624
2425.87	0.161652
2425.39	0.160189
2424.91	0.15948
2424.43	0.159479
2423.94	0.16082
2423.46	0.162739
2422.98	0.162488
2422.5	0.15937
2422.01	0.156961
2421.53	0.158344
2421.05	0.161482
2420.57	0.162504
2420.09	0.161476
2419.6	0.161159
2419.12	0.161946
2418.64	0.162011
2418.16	0.161205
2417.67	0.161117
2417.19	0.161945
2416.71	0.162414
2416.23	0.162107
2415.75	0.161445
2415.26	0.160456
2414.78	0.15969
2414.3	0.16066
2413.82	0.163157
2413.33	0.164236
2412.85	0.162439
2412.37	0.160643
2411.89	0.161916
2411.4	0.164799
2410.92	0.165709
2410.44	0.164065
2409.96	0.161962
2409.48	0.160764
2408.99	0.160823
2408.51	0.162614
2408.03	0.165317
2407.55	0.166148
2407.06	0.163952
2406.58	0.161441
2406.1	0.161369
2405.62	0.162784
2405.13	0.163325
2404.65	0.162906
2404.17	0.162561
2403.69	0.162083
2403.21	0.161355
2402.72	0.161616
2402.24	0.163102
2401.76	0.163804
2401.28	0.162732
2400.79	0.161663
2400.31	0.161776
2399.83	0.161719
2399.35	0.160826
2398.87	0.160712
2398.38	0.161736
2397.9	0.161711
2397.42	0.160303
2396.94	0.160488
2396.45	0.163217
2395.97	0.16507
2395.49	0.163993
2395.01	0.162858
2394.52	0.164007
2394.04	0.165103
2393.56	0.163825
2393.08	0.162309
2392.6	0.162925
2392.11	0.163905
2391.63	0.162984
2391.15	0.161693
2390.67	0.162054
2390.18	0.16259
2389.7	0.161337
2389.22	0.1597
2388.74	0.15982
2388.26	0.161094
2387.77	0.162017
2387.29	0.162653
2386.81	0.162984
2386.33	0.162097
2385.84	0.160761
2385.36	0.161067
2384.88	0.162341
2384.4	0.161642
2383.91	0.159117
2383.43	0.157515
2382.95	0.156033
2382.47	0.151532
2381.99	0.146389
2381.5	0.146593
2381.02	0.15072
2380.54	0.150511
2380.06	0.145441
2379.57	0.144391
2379.09	0.14808
2378.61	0.144892
2378.13	0.132725
2377.64	0.127548
2377.16	0.139087
2376.68	0.14927
2376.2	0.138587
2375.72	0.119737
2375.23	0.117102
2374.75	0.129804
2374.27	0.132701
2373.79	0.119816
2373.3	0.11091
2372.82	0.116501
2372.34	0.122477
2371.86	0.116941
2371.38	0.108793
2370.89	0.108053
2370.41	0.108487
2369.93	0.102355
2369.45	0.0952271
2368.96	0.0952563
2368.48	0.0992423
2368	0.0992822
2367.52	0.0931239
2367.03	0.0825151
2366.55	0.0721213
2366.07	0.0691452
2365.59	0.0768165
2365.11	0.0872027
2364.62	0.0897674
2364.14	0.0853649
2363.66	0.0777503
2363.18	0.0664529
2362.69	0.0578861
2362.21	0.0643678
2361.73	0.0816244
2361.25	0.08272
2360.77	0.0609038
2360.28	0.0459242
2359.8	0.0580249
2359.32	0.0752002
2358.84	0.0703879
2358.35	0.0577285
2357.87	0.0590543
2357.39	0.0648359
2356.91	0.0592345
2356.42	0.0573212
2355.94	0.0754659
2355.46	0.094391
2354.98	0.0905893
2354.5	0.0777188
2354.01	0.0779294
2353.53	0.0851766
2353.05	0.0857904
2352.57	0.0876949
2352.08	0.0970981
2351.6	0.0987668
2351.12	0.0885581
2350.64	0.0900194
2350.15	0.114147
2349.67	0.12896
2349.19	0.116108
2348.71	0.101074
2348.23	0.110681
2347.74	0.13657
2347.26	0.136143
2346.78	0.103502
2346.3	0.0816589
2345.81	0.100514
2345.33	0.123191
2344.85	0.10934
2344.37	0.0865634
2343.89	0.0918012
2343.4	0.10679
2342.92	0.098097
2342.44	0.0838864
2341.96	0.0943634
2341.47	0.111472
2340.99	0.10251
2340.51	0.0834854
2340.03	0.0902907
2339.54	0.112005
2339.06	0.109967
2338.58	0.0884599
2338.1	0.0830523
2337.62	0.0970363
2337.13	0.100408
2336.65	0.0874977
2336.17	0.0852803
2335.69	0.101963
2335.2	0.110268
2334.72	0.0995036
2334.24	0.0892112
2333.76	0.0933225
2333.28	0.0995316
2332.79	0.0983349
2332.31	0.0994458
2331.83	0.106799
2331.35	0.106268
2330.86	0.0944192
2330.38	0.0908851
2329.9	0.105192
2329.42	0.115528
2328.93	0.105496
2328.45	0.0922048
2327.97	0.0978689
2327.49	0.112942
2327.01	0.113484
2326.52	0.100281
2326.04	0.0958915
2325.56	0.106003
2325.08	0.115227
2324.59	0.110486
2324.11	0.102105
2323.63	0.102877
2323.15	0.111029
2322.66	0.114868
2322.18	0.111605
2321.7	0.109473
2321.22	0.112725
2320.74	0.117191
2320.25	0.116925
2319.77	0.114934
2319.29	0.116693
2318.81	0.121841
2318.32	0.123503
2317.84	0.121788
2317.36	0.123636
2316.88	0.132131
2316.4	0.137798
2315.91	0.134771
2315.43	0.129538
2314.95	0.130384
2314.47	0.134458
2313.98	0.132574
2313.5	0.127737
2313.02	0.131102
2312.54	0.141494
2312.05	0.140851
2311.57	0.127428
2311.09	0.117269
2310.61	0.127072
2310.13	0.141345
2309.64	0.140345
2309.16	0.1308
2308.68	0.132561
2308.2	0.145582
2307.71	0.149128
2307.23	0.139808
2306.75	0.133023
2306.27	0.14035
2305.79	0.148957
2305.3	0.147835
2304.82	0.142926
2304.34	0.143511
2303.86	0.145991
2303.37	0.144554
2302.89	0.144371
2302.41	0.151126
2301.93	0.156608
2301.44	0.151946
2300.96	0.144073
2300.48	0.144991
2300	0.152549
2299.52	0.153874
2299.03	0.148494
2298.55	0.147213
2298.07	0.15304
2297.59	0.155925
2297.1	0.150823
2296.62	0.14592
2296.14	0.148093
2295.66	0.153305
2295.17	0.154234
2294.69	0.151801
2294.21	0.15065
2293.73	0.151272
2293.25	0.151639
2292.76	0.151744
2292.28	0.15231
2291.8	0.152333
2291.32	0.151462
2290.83	0.151956
2290.35	0.155057
2289.87	0.158269
2289.39	0.158358
2288.91	0.155503
2288.42	0.152791
2287.94	0.152459
2287.46	0.154471
2286.98	0.157092
2286.49	0.15828
2286.01	0.157678
2285.53	0.157174
2285.05	0.15848
2284.56	0.160631
2284.08	0.161358
2283.6	0.160213
2283.12	0.158854
2282.64	0.158614
2282.15	0.159395
2281.67	0.160425
2281.19	0.160873
2280.71	0.160392
2280.22	0.159621
2279.74	0.159329
2279.26	0.15896
2278.78	0.157616
2278.29	0.156373
2277.81	0.157206
2277.33	0.159561
2276.85	0.160936
2276.37	0.160777
2275.88	0.160509
2275.4	0.160137
2274.92	0.158887
2274.44	0.158497
2273.95	0.160775
2273.47	0.162511
2272.99	0.159629
2272.51	0.155354
2272.03	0.15647
2271.54	0.161218
2271.06	0.160632
2270.58	0.154136
2270.1	0.151773
2269.61	0.157739
2269.13	0.162876
2268.65	0.160061
2268.17	0.155841
2267.68	0.157723
2267.2	0.160807
2266.72	0.157831
2266.24	0.15356
2265.76	0.156607
2265.27	0.163697
2264.79	0.164852
2264.31	0.16005
2263.83	0.157878
2263.34	0.160261
2262.86	0.161094
2262.38	0.158667
2261.9	0.158021
2261.42	0.160599
2260.93	0.16191
2260.45	0.160288
2259.97	0.159275
2259.49	0.15999
2259	0.159206
2258.52	0.156173
2258.04	0.154406
2257.56	0.155581
2257.07	0.15764
2256.59	0.159262
2256.11	0.160992
2255.63	0.161957
2255.15	0.160654
2254.66	0.158764
2254.18	0.159278
2253.7	0.161467
2253.22	0.162326
2252.73	0.161712
2252.25	0.161414
2251.77	0.161
2251.29	0.159358
2250.8	0.158196
2250.32	0.15908
2249.84	0.159748
2249.36	0.15827
2248.88	0.157767
2248.39	0.161121
2247.91	0.164562
2247.43	0.163066
2246.95	0.159
2246.46	0.158233
2245.98	0.160177
2245.5	0.159789
2245.02	0.157239
2244.54	0.15727
2244.05	0.160026
2243.57	0.160713
2243.09	0.158307
2242.61	0.157195
2242.12	0.159437
2241.64	0.162207
2241.16	0.163239
2240.68	0.163229
2240.19	0.162425
2239.71	0.160316
2239.23	0.158613
2238.75	0.159283
2238.27	0.160397
2237.78	0.159113
2237.3	0.157341
2236.82	0.158616
2236.34	0.160995
2235.85	0.159822
2235.37	0.156289
2234.89	0.155906
2234.41	0.158964
2233.93	0.160276
2233.44	0.158492
2232.96	0.158156
2232.48	0.161042
2232	0.16279
2231.51	0.160594
2231.03	0.157866
2230.55	0.15813
2230.07	0.159772
2229.58	0.159851
2229.1	0.158813
2228.62	0.15853
2228.14	0.158971
2227.66	0.159288
2227.17	0.159636
2226.69	0.160053
2226.21	0.159809
2225.73	0.159072
2225.24	0.159076
2224.76	0.159897
2224.28	0.160084
2223.8	0.158994
2223.31	0.157587
2222.83	0.156804
2222.35	0.156976
2221.87	0.15831
2221.39	0.160202
2220.9	0.160875
2220.42	0.159624
2219.94	0.158461
2219.46	0.159365
2218.97	0.161281
2218.49	0.162011
2218.01	0.161556
2217.53	0.161203
2217.05	0.160881
2216.56	0.160065
2216.08	0.159625
2215.6	0.160172
2215.12	0.160421
2214.63	0.159681
2214.15	0.15969
2213.67	0.161216
2213.19	0.161594
2212.7	0.159008
2212.22	0.156541
2211.74	0.157753
2211.26	0.160848
2210.78	0.161648
2210.29	0.160259
2209.81	0.159895
2209.33	0.160758
2208.85	0.160379
2208.36	0.158978
2207.88	0.159184
2207.4	0.160943
2206.92	0.161677
2206.44	0.16123
2205.95	0.161872
2205.47	0.163184
2204.99	0.162088
2204.51	0.158739
2204.02	0.157404
2203.54	0.159906
2203.06	0.162563
2202.58	0.161699
2202.09	0.158932
2201.61	0.158126
2201.13	0.159843
2200.65	0.161464
2200.17	0.161393
2199.68	0.160758
2199.2	0.16117
2198.72	0.162462
2198.24	0.163036
2197.75	0.16188
2197.27	0.159791
2196.79	0.158439
2196.31	0.158435
2195.82	0.159064
2195.34	0.15981
2194.86	0.160895
2194.38	0.162105
2193.9	0.162527
2193.41	0.161977
2192.93	0.161309
2192.45	0.160812
2191.97	0.159955
2191.48	0.159164
2191	0.159777
2190.52	0.161528
2190.04	0.162343
2189.56	0.161528
2189.07	0.160775
2188.59	0.160922
2188.11	0.160521
2187.63	0.159138
2187.14	0.158989
2186.66	0.16097
2186.18	0.162059
2185.7	0.159759
2185.21	0.156704
2184.73	0.157179
2184.25	0.160836
2183.77	0.163461
2183.29	0.163072
2182.8	0.161458
2182.32	0.160126
2181.84	0.158702
2181.36	0.157537
2180.87	0.158228
2180.39	0.160528
2179.91	0.161688
2179.43	0.160392
2178.95	0.158913
2178.46	0.159532
2177.98	0.161058
2177.5	0.160995
2177.02	0.159588
2176.53	0.159111
2176.05	0.159897
2175.57	0.159889
2175.09	0.158342
2174.6	0.157329
2174.12	0.158509
2173.64	0.160524
2173.16	0.161304
2172.68	0.161071
2172.19	0.161145
2171.71	0.161191
2171.23	0.160182
2170.75	0.15913
2170.26	0.160005
2169.78	0.16222
2169.3	0.163059
2168.82	0.161716
2168.33	0.1601
2167.85	0.159427
2167.37	0.159048
2166.89	0.158954
2166.41	0.160119
2165.92	0.16173
2165.44	0.161635
2164.96	0.160406
2164.48	0.161023
2163.99	0.163306
2163.51	0.163199
2163.03	0.159615
2162.55	0.157215
2162.07	0.159371
2161.58	0.162817
2161.1	0.163136
2160.62	0.161455
2160.14	0.161052
2159.65	0.161118
2159.17	0.159287
2158.69	0.157378
2158.21	0.1588
2157.72	0.162183
2157.24	0.163137
2156.76	0.161279
2156.28	0.160078
2155.8	0.160512
2155.31	0.160312
2154.83	0.159134
2154.35	0.159329
2153.87	0.161104
2153.38	0.161611
2152.9	0.159733
2152.42	0.157926
2151.94	0.158236
2151.46	0.159704
2150.97	0.160465
2150.49	0.160049
2150.01	0.159083
2149.53	0.158591
2149.04	0.159426
2148.56	0.160847
2148.08	0.160757
2147.6	0.159005
2147.11	0.158515
2146.63	0.160789
2146.15	0.162861
2145.67	0.161917
2145.19	0.160195
2144.7	0.161223
2144.22	0.163611
2143.74	0.163489
2143.26	0.161243
2142.77	0.16044
2142.29	0.161173
2141.81	0.160207
2141.33	0.157419
2140.84	0.156538
2140.36	0.158884
2139.88	0.161328
2139.4	0.161385
2138.92	0.160149
2138.43	0.159205
2137.95	0.158607
2137.47	0.158745
2136.99	0.160467
2136.5	0.162602
2136.02	0.162779
2135.54	0.161276
2135.06	0.160639
2134.58	0.161248
2134.09	0.161108
2133.61	0.16023
2133.13	0.160936
2132.65	0.163113
2132.16	0.163571
2131.68	0.161472
2131.2	0.1602
2130.72	0.161844
2130.23	0.163879
2129.75	0.163463
2129.27	0.161792
2128.79	0.161412
2128.31	0.161995
2127.82	0.161625
2127.34	0.16026
2126.86	0.159286
2126.38	0.158966
2125.89	0.158644
2125.41	0.158559
2124.93	0.159495
2124.45	0.161093
2123.97	0.161955
2123.48	0.161316
2123	0.159838
2122.52	0.158893
2122.04	0.159347
2121.55	0.160626
2121.07	0.16106
2120.59	0.159887
2120.11	0.158541
2119.62	0.158869
2119.14	0.160501
2118.66	0.161477
2118.18	0.161331
2117.7	0.161584
2117.21	0.16283
2116.73	0.163393
2116.25	0.161986
2115.77	0.160092
2115.28	0.160014
2114.8	0.161526
2114.32	0.162109
2113.84	0.160507
2113.35	0.158488
2112.87	0.158485
2112.39	0.160528
2111.91	0.162505
2111.43	0.162912
2110.94	0.162086
2110.46	0.160915
2109.98	0.159777
2109.5	0.159212
2109.01	0.160126
2108.53	0.162297
2108.05	0.163929
2107.57	0.163835
2107.09	0.162872
2106.6	0.162143
2106.12	0.161292
2105.64	0.159999
2105.16	0.159382
2104.67	0.159954
2104.19	0.160004
2103.71	0.158496
2103.23	0.157687
2102.74	0.15969
2102.26	0.162189
2101.78	0.161522
2101.3	0.158799
2100.82	0.158374
2100.33	0.160636
2099.85	0.161475
2099.37	0.159257
2098.89	0.157262
2098.4	0.157944
2097.92	0.159453
2097.44	0.15969
2096.96	0.159588
2096.48	0.160168
2095.99	0.160214
2095.51	0.159234
2095.03	0.15916
2094.55	0.160678
2094.06	0.161314
2093.58	0.159631
2093.1	0.158124
2092.62	0.159044
2092.13	0.160529
2091.65	0.160021
2091.17	0.158795
2090.69	0.159556
2090.21	0.161658
2089.72	0.162275
2089.24	0.161001
2088.76	0.159965
2088.28	0.160124
2087.79	0.160438
2087.31	0.16025
2086.83	0.160098
2086.35	0.160287
2085.86	0.160432
2085.38	0.160403
2084.9	0.160571
2084.42	0.161188
2083.94	0.162006
2083.45	0.162186
2082.97	0.160787
2082.49	0.158359
2082.01	0.1575
2081.52	0.159897
2081.04	0.163371
2080.56	0.164238
2080.08	0.162485
2079.6	0.161512
2079.11	0.16252
2078.63	0.162821
2078.15	0.160712
2077.67	0.15843
2077.18	0.158422
2076.7	0.159916
2076.22	0.161098
2075.74	0.162012
2075.25	0.163091
2074.77	0.163253
2074.29	0.161866
2073.81	0.16059
2073.33	0.161033
2072.84	0.162268
2072.36	0.162547
2071.88	0.161908
2071.4	0.161257
2070.91	0.160617
2070.43	0.160006
2069.95	0.160349
2069.47	0.161782
2068.99	0.1627
2068.5	0.162153
2068.02	0.161578
2067.54	0.162406
2067.06	0.163594
2066.57	0.163399
2066.09	0.162209
2065.61	0.161649
2065.13	0.162095
2064.64	0.162672
2064.16	0.162848
2063.68	0.162627
2063.2	0.162059
2062.72	0.161692
2062.23	0.162297
2061.75	0.163274
2061.27	0.162838
2060.79	0.160817
2060.3	0.159449
2059.82	0.160019
2059.34	0.160758
2058.86	0.159881
2058.37	0.15874
2057.89	0.159474
2057.41	0.161108
2056.93	0.160887
2056.45	0.158899
2055.96	0.158149
2055.48	0.15987
2055	0.161573
2054.52	0.160933
2054.03	0.159257
2053.55	0.159289
2053.07	0.161014
2052.59	0.161807
2052.11	0.16045
2051.62	0.158802
2051.14	0.158939
2050.66	0.160299
2050.18	0.161013
2049.69	0.160802
2049.21	0.160788
2048.73	0.161157
2048.25	0.161032
2047.76	0.160498
2047.28	0.160635
2046.8	0.161254
2046.32	0.160793
2045.84	0.159087
2045.35	0.158089
2044.87	0.158829
2044.39	0.159917
2043.91	0.160194
2043.42	0.160654
2042.94	0.162087
2042.46	0.162984
2041.98	0.161903
2041.5	0.160175
2041.01	0.15993
2040.53	0.160818
2040.05	0.160956
2039.57	0.159912
2039.08	0.158595
2038.6	0.157501
2038.12	0.157029
2037.64	0.158063
2037.15	0.160264
2036.67	0.161324
2036.19	0.160031
2035.71	0.158561
2035.23	0.159199
2034.74	0.160623
2034.26	0.160223
2033.78	0.158528
2033.3	0.158033
2032.81	0.158962
2032.33	0.159605
2031.85	0.159838
2031.37	0.160781
2030.88	0.161586
2030.4	0.160323
2029.92	0.15793
2029.44	0.157468
2028.96	0.159294
2028.47	0.160454
2027.99	0.159359
2027.51	0.15796
2027.03	0.158229
2026.54	0.159525
2026.06	0.160418
2025.58	0.160747
2025.1	0.160735
2024.62	0.16005
2024.13	0.158785
2023.65	0.157756
2023.17	0.15728
2022.69	0.157078
2022.2	0.157407
2021.72	0.158661
2021.24	0.160004
2020.76	0.160251
2020.27	0.159876
2019.79	0.16009
2019.31	0.160302
2018.83	0.159018
2018.35	0.157148
2017.86	0.157403
2017.38	0.160038
2016.9	0.161974
2016.42	0.161112
2015.93	0.159135
2015.45	0.158499
2014.97	0.159138
2014.49	0.159663
2014.01	0.159771
2013.52	0.159957
2013.04	0.160209
2012.56	0.160307
2012.08	0.160462
2011.59	0.160715
2011.11	0.160614
2010.63	0.160138
2010.15	0.15991
2009.66	0.159995
2009.18	0.159605
2008.7	0.158489
2008.22	0.157504
2007.74	0.157366
2007.25	0.157955
2006.77	0.159125
2006.29	0.160837
2005.81	0.162068
2005.32	0.161248
2004.84	0.158715
2004.36	0.157128
2003.88	0.15838
2003.39	0.161111
2002.91	0.162378
2002.43	0.161149
2001.95	0.158999
2001.47	0.157992
2000.98	0.158767
2000.5	0.16035
2000.02	0.161164
1999.54	0.160539
1999.05	0.159571
1998.57	0.159747
1998.09	0.160719
1997.61	0.160543
1997.13	0.158683
1996.64	0.157159
1996.16	0.157739
1995.68	0.159363
1995.2	0.159923
1994.71	0.159565
1994.23	0.159962
1993.75	0.160994
1993.27	0.160749
1992.78	0.159031
1992.3	0.158205
1991.82	0.159658
1991.34	0.161112
1990.86	0.160135
1990.37	0.158115
1989.89	0.157854
1989.41	0.159264
1988.93	0.159817
1988.44	0.158806
1987.96	0.158454
1987.48	0.160163
1987	0.162203
1986.52	0.162443
1986.03	0.161109
1985.55	0.159786
1985.07	0.159268
1984.59	0.15954
1984.1	0.160541
1983.62	0.161616
1983.14	0.161422
1982.66	0.159788
1982.17	0.158542
1981.69	0.159147
1981.21	0.160518
1980.73	0.160685
1980.25	0.159721
1979.76	0.15937
1979.28	0.160369
1978.8	0.161745
1978.32	0.162482
1977.83	0.162525
1977.35	0.162241
1976.87	0.161918
1976.39	0.161711
1975.9	0.161344
1975.42	0.160246
1974.94	0.158641
1974.46	0.157859
1973.98	0.158732
1973.49	0.160311
1973.01	0.16101
1972.53	0.160491
1972.05	0.15967
1971.56	0.159469
1971.08	0.160144
1970.6	0.161137
1970.12	0.161223
1969.64	0.159769
1969.15	0.158204
1968.67	0.158628
1968.19	0.160604
1967.71	0.161207
1967.22	0.159052
1966.74	0.156559
1966.26	0.156302
1965.78	0.157519
1965.29	0.158245
1964.81	0.158434
1964.33	0.159031
1963.85	0.159829
1963.37	0.160389
1962.88	0.16138
1962.4	0.162868
1961.92	0.163021
1961.44	0.160846
1960.95	0.158559
1960.47	0.15846
1959.99	0.159379
1959.51	0.159172
1959.03	0.158683
1958.54	0.15978
1958.06	0.161147
1957.58	0.160158
1957.1	0.157877
1956.61	0.157791
1956.13	0.159941
1955.65	0.160934
1955.17	0.159658
1954.68	0.158706
1954.2	0.159383
1953.72	0.1598
1953.24	0.159167
1952.76	0.159457
1952.27	0.161174
1951.79	0.161588
1951.31	0.159488
1950.83	0.157839
1950.34	0.158957
1949.86	0.160525
1949.38	0.159642
1948.9	0.157856
1948.41	0.158301
1947.93	0.160186
1947.45	0.16042
1946.97	0.159257
1946.49	0.159774
1946	0.162216
1945.52	0.163223
1945.04	0.161411
1944.56	0.159508
1944.07	0.159526
1943.59	0.159648
1943.11	0.157946
1942.63	0.156028
1942.15	0.156655
1941.66	0.158675
1941.18	0.15906
1940.7	0.158166
1940.22	0.158398
1939.73	0.159841
1939.25	0.16017
1938.77	0.158944
1938.29	0.158471
1937.8	0.159897
1937.32	0.161465
1936.84	0.161827
1936.36	0.161886
1935.88	0.161912
1935.39	0.160212
1934.91	0.156869
1934.43	0.155601
1933.95	0.158819
1933.46	0.163067
1932.98	0.163281
1932.5	0.159859
1932.02	0.157592
1931.54	0.158637
1931.05	0.1606
1930.57	0.161257
1930.09	0.160977
1929.61	0.160359
1929.12	0.159191
1928.64	0.158423
1928.16	0.159727
1927.68	0.162219
1927.19	0.162765
1926.71	0.160725
1926.23	0.159166
1925.75	0.160184
1925.27	0.16197
1924.78	0.161929
1924.3	0.16024
1923.82	0.158732
1923.34	0.15831
1922.85	0.158812
1922.37	0.159573
1921.89	0.15952
1921.41	0.158589
1920.92	0.158643
1920.44	0.161005
1919.96	0.163359
1919.48	0.162345
1919	0.159298
1918.51	0.158834
1918.03	0.162275
1917.55	0.164283
1917.07	0.161471
1916.58	0.158543
1916.1	0.159428
1915.62	0.161916
1915.14	0.161708
1914.66	0.159194
1914.17	0.158084
1913.69	0.159274
1913.21	0.160366
1912.73	0.16028
1912.24	0.160398
1911.76	0.161177
1911.28	0.161124
1910.8	0.159677
1910.31	0.158505
1909.83	0.159329
1909.35	0.161508
1908.87	0.162694
1908.39	0.161701
1907.9	0.159766
1907.42	0.159475
1906.94	0.161606
1906.46	0.163705
1905.97	0.163357
1905.49	0.16159
1905.01	0.161128
1904.53	0.161857
1904.05	0.161388
1903.56	0.159894
1903.08	0.160255
1902.6	0.162507
1902.12	0.163037
1901.63	0.160741
1901.15	0.159578
1900.67	0.161996
1900.19	0.164589
1899.7	0.163712
1899.22	0.161423
1898.74	0.161298
1898.26	0.16201
1897.78	0.160405
1897.29	0.158089
1896.81	0.159031
1896.33	0.162233
1895.85	0.162769
1895.36	0.159425
1894.88	0.15642
1894.4	0.156749
1893.92	0.158532
1893.43	0.1595
1892.95	0.159902
1892.47	0.159959
1891.99	0.159037
1891.51	0.158365
1891.02	0.160199
1890.54	0.163215
1890.06	0.162855
1889.58	0.158081
1889.09	0.154857
1888.61	0.157714
1888.13	0.16212
1887.65	0.162372
1887.17	0.159667
1886.68	0.158915
1886.2	0.160864
1885.72	0.161643
1885.24	0.159902
1884.75	0.158794
1884.27	0.160159
1883.79	0.161319
1883.31	0.1601
1882.82	0.158666
1882.34	0.159649
1881.86	0.161451
1881.38	0.16095
1880.9	0.158758
1880.41	0.158233
1879.93	0.160074
1879.45	0.161644
1878.97	0.161401
1878.48	0.160813
1878	0.161206
1877.52	0.161671
1877.04	0.16121
1876.55	0.160509
1876.07	0.160376
1875.59	0.160377
1875.11	0.160214
1874.63	0.160535
1874.14	0.161319
1873.66	0.161416
1873.18	0.160687
1872.7	0.160585
1872.21	0.161378
1871.73	0.161288
1871.25	0.159842
1870.77	0.159414
1870.29	0.161025
1869.8	0.161557
1869.32	0.157623
1868.84	0.152205
1868.36	0.151659
1867.87	0.155498
1867.39	0.158253
1866.91	0.157651
1866.43	0.156442
1865.94	0.157169
1865.46	0.159042
1864.98	0.160437
1864.5	0.161166
1864.02	0.161415
1863.53	0.161101
1863.05	0.161048
1862.57	0.162301
1862.09	0.163783
1861.6	0.163158
1861.12	0.160616
1860.64	0.159093
1860.16	0.159794
1859.68	0.160708
1859.19	0.160381
1858.71	0.160142
1858.23	0.161153
1857.75	0.162191
1857.26	0.162154
1856.78	0.162165
1856.3	0.163013
1855.82	0.163188
1855.33	0.161705
1854.85	0.160548
1854.37	0.161585
1853.89	0.163299
1853.41	0.163164
1852.92	0.161819
1852.44	0.161579
1851.96	0.162392
1851.48	0.162391
1850.99	0.161744
1850.51	0.162353
1850.03	0.164131
1849.55	0.164632
1849.06	0.163015
1848.58	0.161092
1848.1	0.16042
1847.62	0.160795
1847.14	0.161825
1846.65	0.163727
1846.17	0.165549
1845.69	0.165575
1845.21	0.16418
1844.72	0.163324
1844.24	0.163231
1843.76	0.160983
1843.28	0.15742
1842.8	0.157158
1842.31	0.160988
1841.83	0.16532
1841.35	0.1659
1840.87	0.163892
1840.38	0.163319
1839.9	0.164397
1839.42	0.164388
1838.94	0.163227
1838.45	0.163495
1837.97	0.165275
1837.49	0.165876
1837.01	0.164839
1836.53	0.164575
1836.04	0.165188
1835.56	0.164155
1835.08	0.16198
1834.6	0.162304
1834.11	0.165278
1833.63	0.166194
1833.15	0.163419
1832.67	0.161533
1832.19	0.163304
1831.7	0.164565
1831.22	0.162066
1830.74	0.15948
1830.26	0.161073
1829.77	0.16299
1829.29	0.158662
1828.81	0.153483
1828.33	0.154995
1827.84	0.160385
1827.36	0.162023
1826.88	0.15972
1826.4	0.15983
1825.92	0.163038
1825.43	0.162636
1824.95	0.156272
1824.47	0.153212
1823.99	0.157586
1823.5	0.161804
1823.02	0.160864
1822.54	0.158679
1822.06	0.160375
1821.57	0.163486
1821.09	0.163309
1820.61	0.160998
1820.13	0.160193
1819.65	0.160641
1819.16	0.160505
1818.68	0.160811
1818.2	0.162374
1817.72	0.162576
1817.23	0.160256
1816.75	0.159505
1816.27	0.162876
1815.79	0.165578
1815.31	0.163144
1814.82	0.159295
1814.34	0.160124
1813.86	0.163944
1813.38	0.164583
1812.89	0.162012
1812.41	0.161413
1811.93	0.163634
1811.45	0.163963
1810.96	0.160722
1810.48	0.157746
1810	0.158115
1809.52	0.160233
1809.04	0.162245
1808.55	0.164056
1808.07	0.164587
1807.59	0.162922
1807.11	0.16164
1806.62	0.163342
1806.14	0.165455
1805.66	0.164236
1805.18	0.16184
1804.7	0.162854
1804.21	0.165586
1803.73	0.164543
1803.25	0.160632
1802.77	0.1597
1802.28	0.162026
1801.8	0.161213
1801.32	0.157192
1800.84	0.157736
1800.35	0.163768
1799.87	0.165774
1799.39	0.159209
1798.91	0.15425
1798.43	0.159281
1797.94	0.165993
1797.46	0.165088
1796.98	0.160385
1796.5	0.161037
1796.01	0.165813
1795.53	0.165474
1795.05	0.160004
1794.57	0.158412
1794.08	0.162232
1793.6	0.163685
1793.12	0.159159
1792.64	0.154787
1792.16	0.158115
1791.67	0.162077
1791.19	0.160903
1790.71	0.159435
1790.23	0.162453
1789.74	0.166569
1789.26	0.167476
1788.78	0.167014
1788.3	0.167597
1787.82	0.167713
1787.33	0.166277
1786.85	0.166184
1786.37	0.168548
1785.89	0.168932
1785.4	0.164867
1784.92	0.161876
1784.44	0.166608
1783.96	0.173509
1783.47	0.17374
1782.99	0.169792
1782.51	0.169302
1782.03	0.173039
1781.55	0.174273
1781.06	0.170894
1780.58	0.168874
1780.1	0.172512
1779.62	0.176521
1779.13	0.17641
1778.65	0.174891
1778.17	0.175589
1777.69	0.177404
1777.21	0.17791
1776.72	0.177899
1776.24	0.178757
1775.76	0.179253
1775.28	0.178181
1774.79	0.177564
1774.31	0.179048
1773.83	0.180674
1773.35	0.180402
1772.86	0.178403
1772.38	0.176269
1771.9	0.174057
1771.42	0.171441
1770.94	0.170919
1770.45	0.17472
1769.97	0.18013
1769.49	0.183629
1769.01	0.185438
1768.52	0.185913
1768.04	0.183223
1767.56	0.178599
1767.08	0.177758
1766.59	0.181991
1766.11	0.187167
1765.63	0.189139
1765.15	0.188681
1764.67	0.189017
1764.18	0.190121
1763.7	0.190045
1763.22	0.189661
1762.74	0.190858
1762.25	0.192136
1761.77	0.190169
1761.29	0.187283
1760.81	0.189615
1760.33	0.195089
1759.84	0.198753
1759.36	0.199925
1758.88	0.201322
1758.4	0.203703
1757.91	0.204924
1757.43	0.204968
1756.95	0.206484
1756.47	0.209177
1755.98	0.209079
1755.5	0.207695
1755.02	0.21086
1754.54	0.21919
1754.06	0.225989
1753.57	0.226591
1753.09	0.226121
1752.61	0.231203
1752.13	0.239308
1751.64	0.242218
1751.16	0.236849
1750.68	0.236185
1750.2	0.249021
1749.72	0.265579
1749.23	0.277066
1748.75	0.280532
1748.27	0.281341
1747.79	0.289224
1747.3	0.305903
1746.82	0.325652
1746.34	0.342593
1745.86	0.357271
1745.37	0.374244
1744.89	0.394116
1744.41	0.413829
1743.93	0.433112
1743.45	0.454787
1742.96	0.478315
1742.48	0.500949
1742	0.525705
1741.52	0.555482
1741.03	0.583236
1740.55	0.599609
1740.07	0.609454
1739.59	0.632442
1739.1	0.667084
1738.62	0.686425
1738.14	0.692436
1737.66	0.703077
1737.18	0.718885
1736.69	0.722238
1736.21	0.711959
1735.73	0.704703
1735.25	0.702917
1734.76	0.690511
1734.28	0.658983
1733.8	0.638303
1733.32	0.647371
1732.84	0.65687
1732.35	0.650687
1731.87	0.638068
1731.39	0.62423
1730.91	0.607672
1730.42	0.591142
1729.94	0.581955
1729.46	0.579175
1728.98	0.573336
1728.49	0.564264
1728.01	0.559184
1727.53	0.559138
1727.05	0.558128
1726.57	0.55491
1726.08	0.554864
1725.6	0.55789
1725.12	0.556947
1724.64	0.551556
1724.15	0.549504
1723.67	0.553195
1723.19	0.556011
1722.71	0.555054
1722.23	0.556085
1721.74	0.559752
1721.26	0.558992
1720.78	0.553162
1720.3	0.550726
1719.81	0.552393
1719.33	0.547761
1718.85	0.53175
1718.37	0.51573
1717.88	0.512137
1717.4	0.51478
1716.92	0.507078
1716.44	0.495503
1715.96	0.48823
1715.47	0.48135
1714.99	0.468646
1714.51	0.451798
1714.03	0.439115
1713.54	0.431
1713.06	0.422873
1712.58	0.41309
1712.1	0.40277
1711.61	0.392973
1711.13	0.383703
1710.65	0.374679
1710.17	0.365945
1709.69	0.358146
1709.2	0.351975
1708.72	0.347106
1708.24	0.342117
1707.76	0.335823
1707.27	0.328035
1706.79	0.318717
1706.31	0.309023
1705.83	0.302671
1705.35	0.300396
1704.86	0.298705
1704.38	0.294723
1703.9	0.28924
1703.42	0.285442
1702.93	0.282743
1702.45	0.278859
1701.97	0.274481
1701.49	0.272519
1701	0.2728
1700.52	0.266952
1700.04	0.236915
1699.56	0.221764
1699.08	0.231963
1698.59	0.242499
1698.11	0.247965
1697.63	0.245744
1697.15	0.238577
1696.66	0.232398
1696.18	0.230277
1695.7	0.230519
1695.22	0.224838
1694.74	0.218935
1694.25	0.219612
1693.77	0.224889
1693.29	0.22873
1692.81	0.226163
1692.32	0.220988
1691.84	0.219247
1691.36	0.219358
1690.88	0.216344
1690.39	0.211233
1689.91	0.209338
1689.43	0.210078
1688.95	0.208143
1688.47	0.204157
1687.98	0.203521
1687.5	0.20573
1687.02	0.204276
1686.54	0.199388
1686.05	0.19767
1685.57	0.201079
1685.09	0.202954
1684.61	0.192569
1684.12	0.177907
1683.64	0.17694
1683.16	0.18162
1682.68	0.183833
1682.2	0.187219
1681.71	0.193706
1681.23	0.198176
1680.75	0.195692
1680.27	0.18903
1679.78	0.186406
1679.3	0.189458
1678.82	0.192138
1678.34	0.192053
1677.86	0.191188
1677.37	0.190381
1676.89	0.188995
1676.41	0.187975
1675.93	0.188545
1675.44	0.188483
1674.96	0.182506
1674.48	0.176632
1674	0.178286
1673.51	0.184624
1673.03	0.19034
1672.55	0.191213
1672.07	0.187558
1671.59	0.182873
1671.1	0.181091
1670.62	0.183004
1670.14	0.185075
1669.66	0.183987
1669.17	0.178424
1668.69	0.174492
1668.21	0.177678
1667.73	0.182475
1667.25	0.185421
1666.76	0.186459
1666.28	0.186914
1665.8	0.187416
1665.32	0.187704
1664.83	0.188037
1664.35	0.188691
1663.87	0.188481
1663.39	0.185632
1662.9	0.18015
1662.42	0.177138
1661.94	0.179892
1661.46	0.18383
1660.98	0.185641
1660.49	0.185256
1660.01	0.184232
1659.53	0.183861
1659.05	0.184171
1658.56	0.184493
1658.08	0.184227
1657.6	0.183322
1657.12	0.182259
1656.63	0.181884
1656.15	0.182733
1655.67	0.184027
1655.19	0.183735
1654.71	0.179867
1654.22	0.173769
1653.74	0.171161
1653.26	0.174619
1652.78	0.174783
1652.29	0.161802
1651.81	0.159173
1651.33	0.166829
1650.85	0.174383
1650.37	0.177293
1649.88	0.176228
1649.4	0.176478
1648.92	0.179416
1648.44	0.179556
1647.95	0.172455
1647.47	0.165605
1646.99	0.167909
1646.51	0.174079
1646.02	0.174523
1645.54	0.168217
1645.06	0.167523
1644.58	0.173094
1644.1	0.178329
1643.61	0.180221
1643.13	0.179264
1642.65	0.177663
1642.17	0.17645
1641.68	0.176047
1641.2	0.17692
1640.72	0.1781
1640.24	0.178047
1639.76	0.176954
1639.27	0.176338
1638.79	0.175916
1638.31	0.173855
1637.83	0.170268
1637.34	0.168876
1636.86	0.171122
1636.38	0.172775
1635.9	0.170387
1635.41	0.163829
1634.93	0.161624
1634.45	0.165967
1633.97	0.169345
1633.49	0.171483
1633	0.173675
1632.52	0.175498
1632.04	0.175801
1631.56	0.174808
1631.07	0.173544
1630.59	0.172336
1630.11	0.171202
1629.63	0.170855
1629.14	0.17168
1628.66	0.172381
1628.18	0.171201
1627.7	0.168609
1627.22	0.167816
1626.73	0.169542
1626.25	0.170906
1625.77	0.170399
1625.29	0.169553
1624.8	0.170293
1624.32	0.171295
1623.84	0.169057
1623.36	0.162699
1622.88	0.159789
1622.39	0.164547
1621.91	0.169981
1621.43	0.170497
1620.95	0.166346
1620.46	0.163602
1619.98	0.166169
1619.5	0.170636
1619.02	0.171633
1618.53	0.169034
1618.05	0.167755
1617.57	0.16927
1617.09	0.169547
1616.61	0.162058
1616.12	0.153783
1615.64	0.156345
1615.16	0.162435
1614.68	0.166311
1614.19	0.167303
1613.71	0.167534
1613.23	0.168084
1612.75	0.167467
1612.27	0.165515
1611.78	0.165038
1611.3	0.167171
1610.82	0.168533
1610.34	0.166419
1609.85	0.163522
1609.37	0.164418
1608.89	0.167953
1608.41	0.168469
1607.92	0.164806
1607.44	0.161578
1606.96	0.162216
1606.48	0.164702
1606	0.165547
1605.51	0.165241
1605.03	0.166132
1604.55	0.168032
1604.07	0.16869
1603.58	0.167342
1603.1	0.16537
1602.62	0.164348
1602.14	0.164724
1601.65	0.165821
1601.17	0.16624
1600.69	0.164934
1600.21	0.163058
1599.73	0.163097
1599.24	0.165289
1598.76	0.166997
1598.28	0.16648
1597.8	0.165605
1597.31	0.166473
1596.83	0.167686
1596.35	0.166618
1595.87	0.164175
1595.39	0.163698
1594.9	0.165819
1594.42	0.167553
1593.94	0.166779
1593.46	0.16501
1592.97	0.164366
1592.49	0.164761
1592.01	0.165268
1591.53	0.165965
1591.04	0.167092
1590.56	0.167847
1590.08	0.167481
1589.6	0.16666
1589.12	0.166631
1588.63	0.16747
1588.15	0.1682
1587.67	0.168202
1587.19	0.167719
1586.7	0.167374
1586.22	0.167639
1585.74	0.168471
1585.26	0.169043
1584.78	0.168406
1584.29	0.166824
1583.81	0.165783
1583.33	0.166102
1582.85	0.166606
1582.36	0.165862
1581.88	0.164506
1581.4	0.164417
1580.92	0.165652
1580.43	0.166249
1579.95	0.16524
1579.47	0.164032
1578.99	0.163738
1578.51	0.1634
1578.02	0.162442
1577.54	0.162494
1577.06	0.164235
1576.58	0.16448
1576.09	0.156477
1575.61	0.147192
1575.13	0.151487
1574.65	0.159681
1574.16	0.164403
1573.68	0.164079
1573.2	0.162752
1572.72	0.164236
1572.24	0.165876
1571.75	0.16409
1571.27	0.161635
1570.79	0.162823
1570.31	0.165456
1569.82	0.162478
1569.34	0.15297
1568.86	0.150827
1568.38	0.157599
1567.9	0.164001
1567.41	0.165804
1566.93	0.16511
1566.45	0.164754
1565.97	0.163782
1565.48	0.160625
1565	0.156992
1564.52	0.156079
1564.04	0.15801
1563.55	0.160217
1563.07	0.162077
1562.59	0.163608
1562.11	0.163537
1561.63	0.16219
1561.14	0.16192
1560.66	0.162942
1560.18	0.160335
1559.7	0.148991
1559.21	0.142559
1558.73	0.14321
1558.25	0.142625
1557.77	0.137802
1557.29	0.139618
1556.8	0.148871
1556.32	0.158232
1555.84	0.163083
1555.36	0.16309
1554.87	0.160959
1554.39	0.158935
1553.91	0.158136
1553.43	0.158827
1552.94	0.160509
1552.46	0.162734
1551.98	0.164904
1551.5	0.166317
1551.02	0.166597
1550.53	0.165217
1550.05	0.162187
1549.57	0.16067
1549.09	0.162849
1548.6	0.165354
1548.12	0.165436
1547.64	0.163841
1547.16	0.162997
1546.67	0.163189
1546.19	0.163021
1545.71	0.16243
1545.23	0.162055
1544.75	0.160606
1544.26	0.15749
1543.78	0.155993
1543.3	0.157606
1542.82	0.160024
1542.33	0.158579
1541.85	0.153029
1541.37	0.151765
1540.89	0.155044
1540.41	0.156722
1539.92	0.153237
1539.44	0.146152
1538.96	0.142842
1538.48	0.146078
1537.99	0.151882
1537.51	0.157938
1537.03	0.162303
1536.55	0.163298
1536.06	0.161812
1535.58	0.161299
1535.1	0.162845
1534.62	0.16384
1534.14	0.162116
1533.65	0.158148
1533.17	0.156172
1532.69	0.157851
1532.21	0.16029
1531.72	0.162236
1531.24	0.163534
1530.76	0.164714
1530.28	0.166564
1529.8	0.168105
1529.31	0.166785
1528.83	0.162484
1528.35	0.159523
1527.87	0.160751
1527.38	0.163283
1526.9	0.163476
1526.42	0.163345
1525.94	0.164813
1525.45	0.164482
1524.97	0.159312
1524.49	0.157809
1524.01	0.163415
1523.53	0.169117
1523.04	0.16664
1522.56	0.156768
1522.08	0.152412
1521.6	0.156151
1521.11	0.156207
1520.63	0.149525
1520.15	0.152203
1519.67	0.163285
1519.18	0.168526
1518.7	0.166184
1518.22	0.165138
1517.74	0.170074
1517.26	0.171081
1516.77	0.157463
1516.29	0.148768
1515.81	0.1582
1515.33	0.172269
1514.84	0.173885
1514.36	0.164731
1513.88	0.162582
1513.4	0.170309
1512.92	0.175422
1512.43	0.169262
1511.95	0.160181
1511.47	0.161083
1510.99	0.166123
1510.5	0.166248
1510.02	0.162496
1509.54	0.160425
1509.06	0.161147
1508.57	0.160732
1508.09	0.158636
1507.61	0.156658
1507.13	0.15392
1506.65	0.148645
1506.16	0.144843
1505.68	0.146902
1505.2	0.152555
1504.72	0.157718
1504.23	0.162433
1503.75	0.167267
1503.27	0.170654
1502.79	0.170933
1502.31	0.169609
1501.82	0.169233
1501.34	0.16948
1500.86	0.169424
1500.38	0.170091
1499.89	0.171351
1499.41	0.170163
1498.93	0.16413
1498.45	0.159099
1497.96	0.16316
1497.48	0.169694
1497	0.172004
1496.52	0.16839
1496.04	0.162356
1495.55	0.162597
1495.07	0.167067
1494.59	0.170935
1494.11	0.173049
1493.62	0.172734
1493.14	0.171216
1492.66	0.171733
1492.18	0.174763
1491.69	0.176286
1491.21	0.172378
1490.73	0.16523
1490.25	0.161283
1489.77	0.163133
1489.28	0.166026
1488.8	0.167298
1488.32	0.169276
1487.84	0.172354
1487.35	0.173471
1486.87	0.171393
1486.39	0.170802
1485.91	0.173948
1485.43	0.177539
1484.94	0.178583
1484.46	0.178174
1483.98	0.179059
1483.5	0.181139
1483.01	0.182339
1482.53	0.182025
1482.05	0.180985
1481.57	0.179673
1481.08	0.178913
1480.6	0.180654
1480.12	0.184967
1479.64	0.188608
1479.16	0.189478
1478.67	0.189503
1478.19	0.191647
1477.71	0.194655
1477.23	0.194837
1476.74	0.191868
1476.26	0.190661
1475.78	0.197618
1475.3	0.207073
1474.82	0.211644
1474.33	0.212276
1473.85	0.212026
1473.37	0.214657
1472.89	0.22075
1472.4	0.226864
1471.92	0.232154
1471.44	0.239286
1470.96	0.249565
1470.47	0.260118
1469.99	0.267939
1469.51	0.270627
1469.03	0.268449
1468.55	0.265711
1468.06	0.264151
1467.58	0.261227
1467.1	0.255704
1466.62	0.250104
1466.13	0.245535
1465.65	0.239702
1465.17	0.231451
1464.69	0.225365
1464.2	0.226328
1463.72	0.229093
1463.24	0.229958
1462.76	0.229868
1462.28	0.229405
1461.79	0.227988
1461.31	0.226608
1460.83	0.227431
1460.35	0.229586
1459.86	0.228937
1459.38	0.223936
1458.9	0.218629
1458.42	0.219377
1457.94	0.224345
1457.45	0.225523
1456.97	0.218656
1456.49	0.209482
1456.01	0.21393
1455.52	0.222464
1455.04	0.227121
1454.56	0.228641
1454.08	0.228992
1453.59	0.229384
1453.11	0.228764
1452.63	0.225987
1452.15	0.223082
1451.67	0.223968
1451.18	0.226886
1450.7	0.226669
1450.22	0.222597
1449.74	0.219891
1449.25	0.220954
1448.77	0.221136
1448.29	0.216101
1447.81	0.209729
1447.32	0.209992
1446.84	0.21424
1446.36	0.21531
1445.88	0.213349
1445.4	0.212687
1444.91	0.213912
1444.43	0.213451
1443.95	0.210963
1443.47	0.21004
1442.98	0.2117
1442.5	0.212898
1442.02	0.212348
1441.54	0.212188
1441.06	0.212781
1440.57	0.211732
1440.09	0.209331
1439.61	0.208797
1439.13	0.210564
1438.64	0.21119
1438.16	0.209812
1437.68	0.209557
1437.2	0.21115
1436.71	0.208739
1436.23	0.199418
1435.75	0.197668
1435.27	0.20409
1434.79	0.211114
1434.3	0.213372
1433.82	0.21124
1433.34	0.210118
1432.86	0.21172
1432.37	0.212881
1431.89	0.21177
1431.41	0.210444
1430.93	0.210595
1430.45	0.211441
1429.96	0.211419
1429.48	0.209972
1429	0.20833
1428.52	0.208168
1428.03	0.210128
1427.55	0.2128
1427.07	0.213544
1426.59	0.212361
1426.1	0.211717
1425.62	0.212042
1425.14	0.210756
1424.66	0.206906
1424.18	0.202956
1423.69	0.201801
1423.21	0.20308
1422.73	0.204296
1422.25	0.205553
1421.76	0.207352
1421.28	0.207937
1420.8	0.206689
1420.32	0.206088
1419.83	0.207151
1419.35	0.205422
1418.87	0.1972
1418.39	0.193736
1417.91	0.197639
1417.42	0.204242
1416.94	0.207017
1416.46	0.204081
1415.98	0.201634
1415.49	0.20327
1415.01	0.206698
1414.53	0.208046
1414.05	0.207079
1413.57	0.205758
1413.08	0.205209
1412.6	0.205822
1412.12	0.207441
1411.64	0.208851
1411.15	0.208477
1410.67	0.206788
1410.19	0.206078
1409.71	0.207222
1409.22	0.209018
1408.74	0.210171
1408.26	0.210878
1407.78	0.211511
1407.3	0.211427
1406.81	0.21025
1406.33	0.209028
1405.85	0.20886
1405.37	0.209996
1404.88	0.21185
1404.4	0.213151
1403.92	0.213405
1403.44	0.213233
1402.96	0.213302
1402.47	0.213683
1401.99	0.214174
1401.51	0.215167
1401.03	0.217222
1400.54	0.219511
1400.06	0.220019
1399.58	0.217481
1399.1	0.213386
1398.61	0.212205
1398.13	0.215556
1397.65	0.219647
1397.17	0.220532
1396.69	0.21776
1396.2	0.21554
1395.72	0.218196
1395.24	0.223614
1394.76	0.224698
1394.27	0.219265
1393.79	0.216632
1393.31	0.22242
1392.83	0.229572
1392.34	0.231483
1391.86	0.230368
1391.38	0.23316
1390.9	0.239862
1390.42	0.244254
1389.93	0.245465
1389.45	0.248623
1388.97	0.253951
1388.49	0.255553
1388	0.252604
1387.52	0.253325
1387.04	0.264024
1386.56	0.273819
1386.08	0.274832
1385.59	0.274159
1385.11	0.27944
1384.63	0.288985
1384.15	0.296225
1383.66	0.301098
1383.18	0.307561
1382.7	0.315409
1382.22	0.322789
1381.73	0.332519
1381.25	0.347445
1380.77	0.363351
1380.29	0.374944
1379.81	0.385444
1379.32	0.401265
1378.84	0.420925
1378.36	0.438416
1377.88	0.454496
1377.39	0.475047
1376.91	0.500455
1376.43	0.525806
1375.95	0.548821
1375.47	0.568525
1374.98	0.582436
1374.5	0.59286
1374.02	0.607284
1373.54	0.624902
1373.05	0.633022
1372.57	0.628791
1372.09	0.622767
1371.61	0.618083
1371.12	0.606924
1370.64	0.586726
1370.16	0.565961
1369.68	0.548041
1369.2	0.52725
1368.71	0.501743
1368.23	0.479017
1367.75	0.463352
1367.27	0.449467
1366.78	0.431986
1366.3	0.412931
1365.82	0.396276
1365.34	0.382323
1364.85	0.369722
1364.37	0.358281
1363.89	0.347222
1363.41	0.334247
1362.93	0.319552
1362.44	0.307821
1361.96	0.29992
1361.48	0.291809
1361	0.282076
1360.51	0.274418
1360.03	0.270946
1359.55	0.267734
1359.07	0.261996
1358.59	0.255708
1358.1	0.251187
1357.62	0.24666
1357.14	0.24049
1356.66	0.235692
1356.17	0.235173
1355.69	0.23577
1355.21	0.232704
1354.73	0.227201
1354.24	0.224442
1353.76	0.225318
1353.28	0.226127
1352.8	0.225272
1352.32	0.224185
1351.83	0.223187
1351.35	0.22127
1350.87	0.219504
1350.39	0.220009
1349.9	0.221676
1349.42	0.221349
1348.94	0.219164
1348.46	0.218352
1347.98	0.219699
1347.49	0.220483
1347.01	0.219331
1346.53	0.217936
1346.05	0.217635
1345.56	0.217477
1345.08	0.216589
1344.6	0.215455
1344.12	0.214296
1343.63	0.212758
1343.15	0.211654
1342.67	0.212454
1342.19	0.214295
1341.71	0.214359
1341.22	0.211946
1340.74	0.209268
1340.26	0.20853
1339.78	0.208787
1339.29	0.207556
1338.81	0.204438
1338.33	0.201292
1337.85	0.20001
1337.36	0.20038
1336.88	0.200855
1336.4	0.20052
1335.92	0.199957
1335.44	0.199976
1334.95	0.199933
1334.47	0.198734
1333.99	0.196847
1333.51	0.195795
1333.02	0.195498
1332.54	0.194633
1332.06	0.193585
1331.58	0.194147
1331.1	0.195781
1330.61	0.195608
1330.13	0.192971
1329.65	0.190827
1329.17	0.191045
1328.68	0.191686
1328.2	0.190969
1327.72	0.190346
1327.24	0.191224
1326.75	0.191974
1326.27	0.191042
1325.79	0.190044
1325.31	0.190668
1324.83	0.191337
1324.34	0.19023
1323.86	0.189121
1323.38	0.190593
1322.9	0.193503
1322.41	0.194568
1321.93	0.193109
1321.45	0.191108
1320.97	0.19002
1320.49	0.19031
1320	0.192251
1319.52	0.194744
1319.04	0.195192
1318.56	0.193093
1318.07	0.191767
1317.59	0.193476
1317.11	0.195959
1316.63	0.196204
1316.14	0.195097
1315.66	0.195261
1315.18	0.196563
1314.7	0.19747
1314.22	0.19826
1313.73	0.199634
1313.25	0.200167
1312.77	0.198763
1312.29	0.19775
1311.8	0.199656
1311.32	0.202593
1310.84	0.20315
1310.36	0.201778
1309.87	0.201793
1309.39	0.204123
1308.91	0.2067
1308.43	0.208221
1307.95	0.209119
1307.46	0.209557
1306.98	0.209459
1306.5	0.209868
1306.02	0.211588
1305.53	0.21332
1305.05	0.213505
1304.57	0.212844
1304.09	0.212762
1303.61	0.212977
1303.12	0.213059
1302.64	0.21441
1302.16	0.217808
1301.68	0.220884
1301.19	0.221158
1300.71	0.219939
1300.23	0.220217
1299.75	0.222256
1299.26	0.224316
1298.78	0.225949
1298.3	0.227482
1297.82	0.227939
1297.34	0.226773
1296.85	0.226223
1296.37	0.228496
1295.89	0.23188
1295.41	0.233119
1294.92	0.232365
1294.44	0.232633
1293.96	0.235143
1293.48	0.238283
1293	0.240446
1292.51	0.241298
1292.03	0.24115
1291.55	0.241148
1291.07	0.242941
1290.58	0.246264
1290.1	0.248564
1289.62	0.249008
1289.14	0.250332
1288.65	0.254314
1288.17	0.258285
1287.69	0.259332
1287.21	0.259404
1286.73	0.262216
1286.24	0.267227
1285.76	0.270835
1285.28	0.271945
1284.8	0.272641
1284.31	0.274463
1283.83	0.27753
1283.35	0.282122
1282.87	0.287771
1282.38	0.292027
1281.9	0.293348
1281.42	0.293971
1280.94	0.29682
1280.46	0.301078
1279.97	0.303977
1279.49	0.305544
1279.01	0.308236
1278.53	0.312833
1278.04	0.317831
1277.56	0.321878
1277.08	0.324575
1276.6	0.326285
1276.12	0.329093
1275.63	0.335758
1275.15	0.345406
1274.67	0.353149
1274.19	0.356674
1273.7	0.360114
1273.22	0.367842
1272.74	0.378027
1272.26	0.386416
1271.77	0.392931
1271.29	0.400249
1270.81	0.408472
1270.33	0.416492
1269.85	0.425773
1269.36	0.437419
1268.88	0.448285
1268.4	0.45559
1267.92	0.462562
1267.43	0.473389
1266.95	0.4855
1266.47	0.493808
1265.99	0.499842
1265.51	0.509065
1265.02	0.521197
1264.54	0.531861
1264.06	0.542307
1263.58	0.557737
1263.09	0.576133
1262.61	0.588901
1262.13	0.594591
1261.65	0.6018
1261.16	0.614968
1260.68	0.628157
1260.2	0.636205
1259.72	0.64319
1259.24	0.653927
1258.75	0.665623
1258.27	0.673589
1257.79	0.67798
1257.31	0.68039
1256.82	0.680719
1256.34	0.681457
1255.86	0.687495
1255.38	0.698001
1254.89	0.705768
1254.41	0.708182
1253.93	0.711859
1253.45	0.72252
1252.97	0.738024
1252.48	0.754383
1252	0.771318
1251.52	0.788665
1251.04	0.805134
1250.55	0.824887
1250.07	0.85705
1249.59	0.903589
1249.11	0.953481
1248.63	0.995154
1248.14	1.0322
1247.66	1.07768
1247.18	1.1398
1246.7	1.21973
1246.21	1.31275
1245.73	1.40639
1245.25	1.49592
1244.77	1.61392
1244.28	1.81898
1243.8	2.12608
1243.32	2.33904
1242.84	2.35451
1242.36	2.59178
1241.87	4.00839
1241.39	2.57948
1240.91	1.95281
1240.43	1.69679
1239.94	1.58442
1239.46	1.49536
1238.98	1.38537
1238.5	1.27666
1238.02	1.17967
1237.53	1.08624
1237.05	1.00236
1236.57	0.940885
1236.09	0.896848
1235.6	0.852439
1235.12	0.803137
1234.64	0.760098
1234.16	0.727478
1233.67	0.696932
1233.19	0.664334
1232.71	0.63614
1232.23	0.615466
1231.75	0.595388
1231.26	0.570444
1230.78	0.545205
1230.3	0.525531
1229.82	0.509956
1229.33	0.494309
1228.85	0.478841
1228.37	0.466182
1227.89	0.456309
1227.4	0.447412
1226.92	0.438758
1226.44	0.429943
1225.96	0.419901
1225.48	0.408866
1224.99	0.399009
1224.51	0.391599
1224.03	0.385554
1223.55	0.379501
1223.06	0.373367
1222.58	0.367148
1222.1	0.36008
1221.62	0.351941
1221.14	0.343825
1220.65	0.337065
1220.17	0.332163
1219.69	0.32837
1219.21	0.323938
1218.72	0.317905
1218.24	0.311761
1217.76	0.307525
1217.28	0.303982
1216.79	0.297845
1216.31	0.289416
1215.83	0.283081
1215.35	0.280582
1214.87	0.278264
1214.38	0.273377
1213.9	0.26869
1213.42	0.267097
1212.94	0.266062
1212.45	0.261994
1211.97	0.256483
1211.49	0.253162
1211.01	0.251309
1210.53	0.248015
1210.04	0.243969
1209.56	0.24175
1209.08	0.240654
1208.6	0.238568
1208.11	0.236805
1207.63	0.237503
1207.15	0.238149
1206.67	0.234807
1206.18	0.229314
1205.7	0.226854
1205.22	0.227426
1204.74	0.226349
1204.26	0.22289
1203.77	0.221337
1203.29	0.222743
1202.81	0.222598
1202.33	0.218526
1201.84	0.2144
1201.36	0.213871
1200.88	0.215154
1200.4	0.215011
1199.91	0.213618
1199.43	0.212601
1198.95	0.211672
1198.47	0.210068
1197.99	0.208613
1197.5	0.208003
1197.02	0.207322
1196.54	0.206029
1196.06	0.205217
1195.57	0.205482
1195.09	0.205744
1194.61	0.205347
1194.13	0.205129
1193.65	0.205501
1193.16	0.205758
1192.68	0.206041
1192.2	0.207469
1191.72	0.209627
1191.23	0.210707
1190.75	0.21084
1190.27	0.212315
1189.79	0.215543
1189.3	0.218077
1188.82	0.218874
1188.34	0.220202
1187.86	0.223603
1187.38	0.227426
1186.89	0.230478
1186.41	0.234806
1185.93	0.242052
1185.45	0.250027
1184.96	0.256116
1184.48	0.261586
1184	0.26887
1183.52	0.276411
1183.04	0.280455
1182.55	0.280938
1182.07	0.281354
1181.59	0.282879
1181.11	0.282572
1180.62	0.278146
1180.14	0.271385
1179.66	0.26551
1179.18	0.261558
1178.69	0.258637
1178.21	0.255858
1177.73	0.2527
1177.25	0.248637
1176.77	0.243801
1176.28	0.239621
1175.8	0.237678
1175.32	0.237792
1174.84	0.237918
1174.35	0.236263
1173.87	0.233377
1173.39	0.231628
1172.91	0.232474
1172.42	0.234846
1171.94	0.236564
1171.46	0.236951
1170.98	0.23732
1170.5	0.239137
1170.01	0.242582
1169.53	0.2468
1169.05	0.250648
1168.57	0.253218
1168.08	0.254755
1167.6	0.257005
1167.12	0.261361
1166.64	0.26668
1166.16	0.270499
1165.67	0.2727
1165.19	0.275856
1164.71	0.281162
1164.23	0.286166
1163.74	0.288198
1163.26	0.288411
1162.78	0.29015
1162.3	0.294201
1161.81	0.297987
1161.33	0.299313
1160.85	0.298867
1160.37	0.298558
1159.89	0.298883
1159.4	0.298955
1158.92	0.298273
1158.44	0.297454
1157.96	0.297301
1157.47	0.297569
1156.99	0.29681
1156.51	0.293828
1156.03	0.289534
1155.55	0.286734
1155.06	0.28722
1154.58	0.289257
1154.1	0.289482
1153.62	0.287465
1153.13	0.286391
1152.65	0.288605
1152.17	0.292325
1151.69	0.294498
1151.2	0.295449
1150.72	0.298139
1150.24	0.303529
1149.76	0.309377
1149.28	0.313766
1148.79	0.317539
1148.31	0.322289
1147.83	0.327877
1147.35	0.333117
1146.86	0.337424
1146.38	0.340674
1145.9	0.342535
1145.42	0.343008
1144.93	0.342574
1144.45	0.341067
1143.97	0.337831
1143.49	0.333755
1143.01	0.331185
1142.52	0.330627
1142.04	0.329621
1141.56	0.326389
1141.08	0.32248
1140.59	0.319972
1140.11	0.318255
1139.63	0.31582
1139.15	0.31326
1138.67	0.312001
1138.18	0.311727
1137.7	0.311553
1137.22	0.312196
1136.74	0.3143
1136.25	0.316148
1135.77	0.316014
1135.29	0.315544
1134.81	0.317405
1134.32	0.320587
1133.84	0.321766
1133.36	0.320943
1132.88	0.321698
1132.4	0.325348
1131.91	0.328708
1131.43	0.328775
1130.95	0.326651
1130.47	0.325162
1129.98	0.325228
1129.5	0.326148
1129.02	0.327318
1128.54	0.328098
1128.06	0.327504
1127.57	0.325388
1127.09	0.32293
1126.61	0.321129
1126.13	0.319782
1125.64	0.31833
1125.16	0.316766
1124.68	0.315368
1124.2	0.314282
1123.71	0.313549
1123.23	0.313123
1122.75	0.313181
1122.27	0.314695
1121.79	0.318655
1121.3	0.324097
1120.82	0.328385
1120.34	0.330723
1119.86	0.333894
1119.37	0.34073
1118.89	0.35037
1118.41	0.360075
1117.93	0.36953
1117.44	0.380699
1116.96	0.394241
1116.48	0.409219
1116	0.426088
1115.52	0.446813
1115.03	0.471485
1114.55	0.49765
1114.07	0.523821
1113.59	0.551409
1113.1	0.582456
1112.62	0.617797
1112.14	0.657801
1111.66	0.701822
1111.18	0.745986
1110.69	0.785084
1110.21	0.818283
1109.73	0.849162
1109.25	0.879714
1108.76	0.908715
1108.28	0.933528
1107.8	0.94724
1107.32	0.939874
1106.83	0.912622
1106.35	0.880625
1105.87	0.853792
1105.39	0.826978
1104.91	0.792517
1104.42	0.75341
1103.94	0.716865
1103.46	0.683763
1102.98	0.651198
1102.49	0.619207
1102.01	0.589718
1101.53	0.562906
1101.05	0.538573
1100.57	0.517865
1100.08	0.500599
1099.6	0.483918
1099.12	0.466209
1098.64	0.449605
1098.15	0.43619
1097.67	0.424843
1097.19	0.414281
1096.71	0.405705
1096.22	0.399333
1095.74	0.391619
1095.26	0.379958
1094.78	0.367679
1094.3	0.359985
1093.81	0.356993
1093.33	0.354232
1092.85	0.348697
1092.37	0.34124
1091.88	0.333831
1091.4	0.327734
1090.92	0.323547
1090.44	0.320318
1089.95	0.315654
1089.47	0.309102
1088.99	0.303738
1088.51	0.301776
1088.03	0.300649
1087.54	0.296608
1087.06	0.290649
1086.58	0.286852
1086.1	0.285975
1085.61	0.284581
1085.13	0.280339
1084.65	0.274599
1084.17	0.269567
1083.69	0.266002
1083.2	0.263859
1082.72	0.262695
1082.24	0.261155
1081.76	0.25818
1081.27	0.254826
1080.79	0.252818
1080.31	0.251788
1079.83	0.250073
1079.34	0.247779
1078.86	0.246545
1078.38	0.246409
1077.9	0.245416
1077.42	0.242725
1076.93	0.239806
1076.45	0.238015
1075.97	0.236921
1075.49	0.235523
1075	0.233763
1074.52	0.232337
1074.04	0.231882
1073.56	0.232437
1073.08	0.233173
1072.59	0.233021
1072.11	0.23212
1071.63	0.231752
1071.15	0.231973
1070.66	0.23083
1070.18	0.227429
1069.7	0.224284
1069.22	0.224408
1068.73	0.227074
1068.25	0.228431
1067.77	0.226292
1067.29	0.222654
1066.81	0.221118
1066.32	0.223007
1065.84	0.225894
1065.36	0.22597
1064.88	0.222591
1064.39	0.219867
1063.91	0.221776
1063.43	0.226321
1062.95	0.22755
1062.46	0.22387
1061.98	0.22051
1061.5	0.221617
1061.02	0.224643
1060.54	0.2252
1060.05	0.223802
1059.57	0.223655
1059.09	0.224721
1058.61	0.224739
1058.12	0.224088
1057.64	0.224989
1057.16	0.227043
1056.68	0.228001
1056.2	0.228125
1055.71	0.229678
1055.23	0.232541
1054.75	0.234313
1054.27	0.234518
1053.78	0.235003
1053.3	0.236346
1052.82	0.237421
1052.34	0.238394
1051.85	0.240703
1051.37	0.244113
1050.89	0.246826
1050.41	0.248342
1049.93	0.249303
1049.44	0.249267
1048.96	0.247982
1048.48	0.247816
1048	0.250975
1047.51	0.254925
1047.03	0.254887
1046.55	0.250933
1046.07	0.248039
1045.58	0.249005
1045.1	0.25143
1044.62	0.252131
1044.14	0.251083
1043.66	0.249861
1043.17	0.249296
1042.69	0.249656
1042.21	0.250716
1041.73	0.251188
1041.24	0.250294
1040.76	0.249694
1040.28	0.251313
1039.8	0.253836
1039.32	0.254306
1038.83	0.252764
1038.35	0.251973
1037.87	0.252764
1037.39	0.253219
1036.9	0.252592
1036.42	0.252592
1035.94	0.254317
1035.46	0.256849
1034.97	0.259357
1034.49	0.261859
1034.01	0.263825
1033.53	0.26482
1033.05	0.266267
1032.56	0.269664
1032.08	0.273656
1031.6	0.276083
1031.12	0.278159
1030.63	0.28257
1030.15	0.288292
1029.67	0.2919
1029.19	0.293951
1028.71	0.29862
1028.22	0.306579
1027.74	0.313666
1027.26	0.318025
1026.78	0.323179
1026.29	0.331689
1025.81	0.341008
1025.33	0.348354
1024.85	0.355086
1024.36	0.363123
1023.88	0.371265
1023.4	0.378335
1022.92	0.386184
1022.44	0.396182
1021.95	0.406101
1021.47	0.413645
1020.99	0.420012
1020.51	0.426695
1020.02	0.431889
1019.54	0.433517
1019.06	0.433354
1018.58	0.434953
1018.09	0.438875
1017.61	0.442055
1017.13	0.441496
1016.65	0.43721
1016.17	0.43178
1015.68	0.427165
1015.2	0.42212
1014.72	0.414316
1014.24	0.404957
1013.75	0.398006
1013.27	0.393739
1012.79	0.387309
1012.31	0.376179
1011.83	0.364877
1011.34	0.358086
1010.86	0.353507
1010.38	0.346211
1009.9	0.336835
1009.41	0.329727
1008.93	0.325054
1008.45	0.318976
1007.97	0.310728
1007.48	0.303497
1007	0.298253
1006.52	0.29258
1006.04	0.28612
1005.56	0.281713
1005.07	0.27978
1004.59	0.276654
1004.11	0.27053
1003.63	0.264712
1003.14	0.262378
1002.66	0.261897
1002.18	0.259816
1001.7	0.255652
1001.22	0.251211
1000.73	0.247542
1000.25	0.244709
999.768	0.242696
999.286	0.240921
998.804	0.238431
998.321	0.235587
997.839	0.233751
997.357	0.2327
996.875	0.230687
996.392	0.227669
995.91	0.225865
995.428	0.226242
994.946	0.227085
994.463	0.22676
993.981	0.225441
993.499	0.223575
993.016	0.221425
992.534	0.220509
992.052	0.221986
991.57	0.223237
991.087	0.220405
990.605	0.215111
990.123	0.213396
989.64	0.216512
989.158	0.218316
988.676	0.214655
988.194	0.209953
987.711	0.209802
987.229	0.212372
986.747	0.21264
986.264	0.210783
985.782	0.21008
985.3	0.209627
984.818	0.206271
984.335	0.202101
983.853	0.202587
983.371	0.207528
982.888	0.210516
982.406	0.208283
981.924	0.204808
981.442	0.204024
980.959	0.204316
980.477	0.202924
979.995	0.20103
979.513	0.201147
979.03	0.20267
978.548	0.203442
978.066	0.203475
977.583	0.204138
977.101	0.205237
976.619	0.205481
976.137	0.204791
975.654	0.204014
975.172	0.203274
974.69	0.202493
974.207	0.20263
973.725	0.204495
973.243	0.207003
972.761	0.208481
972.278	0.209282
971.796	0.211255
971.314	0.214651
970.831	0.217439
970.349	0.218418
969.867	0.219309
969.385	0.222273
968.902	0.226602
968.42	0.229888
967.938	0.232206
967.455	0.236739
966.973	0.245224
966.491	0.255121
966.009	0.26345
965.526	0.271542
965.044	0.282896
964.562	0.297271
964.08	0.310964
963.597	0.323332
963.115	0.338495
962.633	0.358659
962.15	0.379809
961.668	0.3974
961.186	0.413262
960.704	0.431676
960.221	0.450653
959.739	0.463492
959.257	0.469328
958.774	0.475529
958.292	0.487033
957.81	0.499726
957.328	0.507261
956.845	0.510133
956.363	0.513517
955.881	0.519249
955.398	0.524786
954.916	0.52824
954.434	0.530604
953.952	0.533278
953.469	0.535996
952.987	0.536866
952.505	0.53353
952.023	0.525587
951.54	0.515949
951.058	0.507493
950.576	0.498589
950.093	0.485443
949.611	0.468759
949.129	0.453252
948.647	0.440156
948.164	0.426081
947.682	0.410399
947.2	0.397384
946.717	0.388354
946.235	0.377771
945.753	0.361673
945.271	0.345127
944.788	0.335331
944.306	0.33146
943.824	0.326689
943.341	0.318359
942.859	0.3104
942.377	0.30551
941.895	0.301249
941.412	0.295305
940.93	0.2895
940.448	0.285691
939.965	0.281699
939.483	0.275108
939.001	0.268353
938.519	0.265669
938.036	0.266424
937.554	0.265544
937.072	0.260927
936.59	0.255919
936.107	0.253308
935.625	0.25127
935.143	0.247414
934.66	0.243307
934.178	0.241516
933.696	0.240802
933.214	0.238375
932.731	0.234995
932.249	0.233479
931.767	0.233268
931.284	0.231227
930.802	0.227555
930.32	0.225648
929.838	0.22601
929.355	0.22532
928.873	0.222626
928.391	0.220992
927.908	0.221152
927.426	0.219491
926.944	0.215035
926.462	0.21244
925.979	0.214177
925.497	0.21535
925.015	0.211495
924.532	0.206608
924.05	0.206625
923.568	0.209449
923.086	0.208561
922.603	0.204045
922.121	0.202156
921.639	0.204644
921.157	0.206662
920.674	0.205115
920.192	0.202643
919.71	0.201853
919.227	0.201502
918.745	0.200338
918.263	0.199563
917.781	0.199538
917.298	0.198306
916.816	0.195161
916.334	0.192239
915.851	0.191215
915.369	0.191596
914.887	0.192839
914.405	0.194744
913.922	0.195615
913.44	0.193771
912.958	0.190981
912.475	0.19052
911.993	0.192016
911.511	0.192193
911.029	0.190647
910.546	0.190398
910.064	0.192367
909.582	0.194091
909.1	0.194118
908.617	0.193228
908.135	0.19124
907.653	0.187637
907.17	0.185263
906.688	0.187408
906.206	0.191293
905.724	0.190966
905.241	0.186969
904.759	0.186145
904.277	0.190157
903.794	0.192695
903.312	0.1906
902.83	0.189151
902.348	0.191987
901.865	0.194075
901.383	0.190947
900.901	0.187677
900.418	0.190681
899.936	0.196695
899.454	0.197486
898.972	0.192486
898.489	0.188707
898.007	0.189496
897.525	0.191715
897.042	0.192674
896.56	0.193392
896.078	0.194933
895.596	0.196605
895.113	0.198245
894.631	0.20049
894.149	0.202913
893.667	0.204958
893.184	0.207885
892.702	0.212835
892.22	0.218307
891.737	0.222498
891.255	0.226332
890.773	0.231239
890.291	0.236103
889.808	0.239677
889.326	0.243632
888.844	0.24927
888.361	0.253754
887.879	0.253812
887.397	0.250953
886.915	0.248892
886.432	0.247915
885.95	0.246199
885.468	0.244013
884.985	0.241988
884.503	0.238004
884.021	0.230762
883.539	0.223958
883.056	0.22156
882.574	0.221454
882.092	0.218756
881.609	0.213286
881.127	0.208751
880.645	0.206208
880.163	0.203875
879.68	0.201901
879.198	0.201609
878.716	0.201217
878.234	0.197935
877.751	0.193634
877.269	0.192513
876.787	0.193762
876.304	0.192527
875.822	0.187913
875.34	0.184345
874.858	0.184595
874.375	0.186845
873.893	0.18929
873.411	0.192037
872.928	0.193569
872.446	0.191117
871.964	0.186148
871.482	0.183946
870.999	0.185889
870.517	0.187557
870.035	0.186087
869.552	0.184116
869.07	0.184112
868.588	0.18385
868.106	0.181275
867.623	0.179162
867.141	0.180814
866.659	0.18445
866.177	0.185728
865.694	0.18395
865.212	0.181738
864.73	0.180309
864.247	0.179062
863.765	0.178496
863.283	0.179896
862.801	0.182346
862.318	0.183204
861.836	0.181791
861.354	0.180225
860.871	0.180332
860.389	0.181451
859.907	0.181862
859.425	0.181169
858.942	0.180262
858.46	0.179567
857.978	0.178424
857.495	0.176338
857.013	0.174225
856.531	0.173718
856.049	0.175387
855.566	0.178213
855.084	0.180537
854.602	0.181079
854.119	0.179498
853.637	0.177041
853.155	0.176316
852.673	0.178724
852.19	0.182063
851.708	0.182541
851.226	0.17986
850.744	0.177674
850.261	0.178112
849.779	0.179299
849.297	0.179362
848.814	0.179534
848.332	0.180965
847.85	0.181763
847.368	0.180476
846.885	0.179476
846.403	0.181069
845.921	0.182954
845.438	0.181675
844.956	0.178813
844.474	0.178549
843.992	0.180456
843.509	0.180418
843.027	0.178005
842.545	0.177396
842.062	0.180013
841.58	0.181869
841.098	0.180271
840.616	0.178118
840.133	0.178879
839.651	0.181149
839.169	0.181351
838.686	0.179388
838.204	0.177903
837.722	0.177847
837.24	0.178071
836.757	0.178203
836.275	0.179245
835.793	0.181383
835.311	0.183245
834.828	0.183663
834.346	0.182934
833.864	0.182123
833.381	0.181941
832.899	0.182448
832.417	0.183471
831.935	0.185066
831.452	0.187219
830.97	0.189084
830.488	0.189422
830.005	0.188521
829.523	0.188646
829.041	0.191452
828.559	0.195553
828.076	0.197968
827.594	0.197835
827.112	0.197337
826.629	0.198958
826.147	0.203048
825.665	0.208366
825.183	0.213945
824.7	0.220295
824.218	0.229227
823.736	0.241839
823.254	0.256438
822.771	0.269862
822.289	0.281762
821.807	0.295797
821.324	0.3143
820.842	0.333298
820.36	0.346127
819.878	0.350767
819.395	0.350296
818.913	0.347837
818.431	0.344874
817.948	0.342763
817.466	0.341276
816.984	0.336616
816.502	0.325616
816.019	0.311789
815.537	0.302103
815.055	0.296907
814.572	0.289243
814.09	0.275569
813.608	0.261155
813.126	0.252124
812.643	0.246873
812.161	0.240025
811.679	0.231424
811.196	0.225809
810.714	0.225177
810.232	0.226057
809.75	0.223875
809.267	0.21755
808.785	0.209745
808.303	0.204293
807.821	0.203515
807.338	0.205943
806.856	0.207075
806.374	0.204349
805.891	0.199869
805.409	0.196647
804.927	0.194787
804.445	0.193456
803.962	0.193544
803.48	0.195105
802.998	0.194937
802.515	0.191096
802.033	0.187118
801.551	0.18724
801.069	0.189699
800.586	0.189631
800.104	0.187391
799.622	0.187268
799.139	0.188944
798.657	0.187962
798.175	0.184814
797.693	0.1857
797.21	0.191727
796.728	0.195357
796.246	0.191601
795.763	0.185496
795.281	0.183642
794.799	0.184914
794.317	0.184879
793.834	0.184133
793.352	0.185403
792.87	0.186796
792.388	0.184868
791.905	0.181469
791.423	0.18129
790.941	0.184126
790.458	0.185971
789.976	0.185603
789.494	0.184464
789.012	0.182573
788.529	0.179978
788.047	0.179734
787.565	0.183385
787.082	0.186407
786.6	0.184413
786.118	0.181335
785.636	0.183704
785.153	0.188758
784.671	0.187842
784.189	0.180817
783.706	0.176899
783.224	0.180373
782.742	0.184622
782.26	0.183508
781.777	0.180268
781.295	0.179992
780.813	0.181522
780.331	0.181689
779.848	0.181562
779.366	0.183071
778.884	0.183897
778.401	0.181351
777.919	0.177692
777.437	0.176922
776.955	0.178818
776.472	0.180149
775.99	0.180189
775.508	0.181136
775.025	0.184083
774.543	0.187471
774.061	0.188882
773.579	0.187242
773.096	0.183997
772.614	0.18195
772.132	0.181898
771.649	0.181423
771.167	0.178865
770.685	0.176959
770.203	0.178848
769.72	0.1822
769.238	0.182363
768.756	0.179862
768.273	0.179582
767.791	0.182892
767.309	0.185854
766.827	0.186018
766.344	0.185005
765.862	0.184147
765.38	0.182953
764.898	0.181987
764.415	0.182317
763.933	0.182547
763.451	0.181513
762.968	0.182261
762.486	0.187045
762.004	0.190432
761.522	0.185836
761.039	0.17774
760.557	0.176576
760.075	0.182759
759.592	0.186234
759.11	0.182797
758.628	0.180097
758.146	0.183539
757.663	0.187844
757.181	0.187676
756.699	0.18579
756.216	0.185794
755.734	0.185785
755.252	0.184534
754.77	0.185131
754.287	0.187467
753.805	0.186152
753.323	0.180785
752.84	0.178933
752.358	0.183379
751.876	0.186759
751.394	0.18426
750.911	0.180956
750.429	0.180744
749.947	0.179472
749.465	0.176067
748.982	0.178082
748.5	0.187047
748.018	0.191202
747.535	0.183637
747.053	0.176353
746.571	0.181845
746.089	0.192409
745.606	0.193429
745.124	0.187781
744.642	0.187904
744.159	0.192708
743.677	0.190608
743.195	0.182649
742.713	0.180561
742.23	0.184941
741.748	0.184656
741.266	0.178044
740.783	0.177317
740.301	0.18624
739.819	0.192302
739.337	0.186719
738.854	0.177563
738.372	0.175499
737.89	0.17898
737.408	0.181549
736.925	0.183536
736.443	0.187524
735.961	0.190677
735.478	0.1896
734.996	0.186943
734.514	0.18637
734.032	0.186574
733.549	0.186014
733.067	0.187371
732.585	0.191728
732.102	0.193721
731.62	0.189349
731.138	0.183966
730.656	0.184861
730.173	0.190997
729.691	0.195123
729.209	0.1939
728.726	0.190664
728.244	0.188448
727.762	0.186715
727.28	0.185145
726.797	0.185748
726.315	0.189715
725.833	0.19456
725.35	0.196395
724.868	0.194134
724.386	0.190474
723.904	0.189125
723.421	0.191075
722.939	0.194333
722.457	0.196987
721.975	0.198828
721.492	0.1992
721.01	0.195609
720.528	0.187419
720.045	0.181013
719.563	0.183097
719.081	0.189672
718.599	0.192765
718.116	0.190434
717.634	0.188011
717.152	0.189865
716.669	0.193342
716.187	0.194455
715.705	0.194497
715.223	0.197223
714.74	0.201888
714.258	0.20354
713.776	0.200137
713.293	0.195961
712.811	0.195252
712.329	0.196504
711.847	0.195112
711.364	0.190568
710.882	0.187999
710.4	0.190998
709.917	0.195761
709.435	0.195478
708.953	0.189861
708.471	0.186043
707.988	0.188835
707.506	0.193721
707.024	0.194166
706.542	0.191713
706.059	0.193203
705.577	0.198775
705.095	0.199496
704.612	0.190712
704.13	0.181333
703.648	0.182902
703.166	0.193746
702.683	0.200647
702.201	0.196499
701.719	0.190347
701.236	0.192669
700.754	0.199263
700.272	0.198395
699.79	0.189876
699.307	0.185982
698.825	0.192883
698.343	0.200369
697.86	0.1975
697.378	0.189316
696.896	0.18862
696.414	0.197495
695.931	0.203949
695.449	0.199391
694.967	0.189539
694.485	0.185315
694.002	0.189547
693.52	0.196065
693.038	0.198234
692.555	0.19606
692.073	0.1944
691.591	0.195023
691.109	0.194239
690.626	0.188286
690.144	0.180628
689.662	0.178773
689.179	0.183815
688.697	0.189244
688.215	0.19081
687.733	0.191971
687.25	0.196056
686.768	0.198507
686.286	0.194125
685.803	0.186669
685.321	0.18348
684.839	0.185931
684.357	0.189419
683.874	0.191963
683.392	0.19574
682.91	0.199955
682.427	0.200404
681.945	0.196346
681.463	0.191924
680.981	0.190803
680.498	0.191816
680.016	0.192202
679.534	0.191517
679.052	0.190351
678.569	0.188833
678.087	0.187713
677.605	0.18872
677.122	0.191853
676.64	0.193799
676.158	0.191078
675.676	0.184266
675.193	0.17958
674.711	0.183533
674.229	0.195003
673.746	0.204654
673.264	0.204886
672.782	0.19893
672.3	0.193858
671.817	0.192367
671.335	0.194718
670.853	0.201813
670.37	0.209952
669.888	0.205908
669.406	0.181371
668.924	0.142753
668.441	0.073225
667.959	0.0739999
667.477	0.162505
666.994	0.174609
666.512	0.182874
666.03	0.20023
665.548	0.21609
665.065	0.212072
664.583	0.196166
664.101	0.190614
663.619	0.197222
663.136	0.203552
662.654	0.202272
662.172	0.19853
661.689	0.196395
661.207	0.196548
660.725	0.201185
660.243	0.208846
659.76	0.210427
659.278	0.201164
658.796	0.192132
658.313	0.194855
657.831	0.204506
657.349	0.208008
656.867	0.202631
656.384	0.196673
655.902	0.194545
655.42	0.194455
654.937	0.19598
654.455	0.199916
653.973	0.203799
653.491	0.205182
653.008	0.205907
652.526	0.208105
652.044	0.211176
651.562	0.214619
651.079	0.216894
650.597	0.211656
650.115	0.196503
649.632	0.184046
649.15	0.188419
648.668	0.202601
648.186	0.206407
647.703	0.200543
647.221	0.203544
646.739	0.216275
646.256	0.219244
645.774	0.208588
645.292	0.206446
644.81	0.219877
644.327	0.224773
643.845	0.207823
643.363	0.194255
642.88	0.204169
642.398	0.220833
641.916	0.219799
641.434	0.210228
640.951	0.212192
640.469	0.21988
639.987	0.217215
639.504	0.211347
639.022	0.217357
638.54	0.227184
638.058	0.226828
637.575	0.225146
637.093	0.236007
636.611	0.247008
636.129	0.240381
635.646	0.229684
635.164	0.238584
634.682	0.258956
634.199	0.263391
633.717	0.253228
633.235	0.25168
632.753	0.264476
632.27	0.273793
631.788	0.271212
631.306	0.267775
630.823	0.273585
630.341	0.289632
629.859	0.311702
629.377	0.327853
628.894	0.322312
628.412	0.302822
627.93	0.29814
627.447	0.313747
626.965	0.321039
626.483	0.302552
626.001	0.284855
625.518	0.287182
625.036	0.286879
624.554	0.263584
624.071	0.241895
623.589	0.248641
623.107	0.265182
622.625	0.263036
622.142	0.254448
621.66	0.265375
621.178	0.282444
620.696	0.276175
620.213	0.254598
619.731	0.243125
619.249	0.239494
618.766	0.233239
618.284	0.241111
617.802	0.278828
617.32	0.307064
616.837	0.289387
616.355	0.271009
615.873	0.297641
615.39	0.340443
614.908	0.327643
614.426	0.285944
613.944	0.288276
613.461	0.338961
612.979	0.365133
612.497	0.331996
612.014	0.301705
611.532	0.3188
611.05	0.356437
610.568	0.368294
610.085	0.359866
609.603	0.35632
609.121	0.355307
608.639	0.346506
608.156	0.335829
607.674	0.327939
607.192	0.318633
606.709	0.312411
606.227	0.318655
605.745	0.327705
605.263	0.317976
604.78	0.291851
604.298	0.27487
603.816	0.274375
603.333	0.270677
602.851	0.25178
602.369	0.232208
601.887	0.227166
601.404	0.232658
600.922	0.239212
600.44	0.245679
599.957	0.250263
599.475	0.243791
598.993	0.224986
598.511	0.209618
598.028	0.214203
597.546	0.236802
597.064	0.256184
596.581	0.252817
596.099	0.231392
595.617	0.215262
595.135	0.220342
594.652	0.238528
594.17	0.248071
593.688	0.242323
593.206	0.232878
592.723	0.227449
592.241	0.226421
591.759	0.235894
591.276	0.260416
590.794	0.281588
590.312	0.272434
589.83	0.241613
589.347	0.226458
588.865	0.237527
588.383	0.245778
587.9	0.232553
587.418	0.221315
586.936	0.233113
586.454	0.249101
585.971	0.243405
585.489	0.227741
585.007	0.22613
584.524	0.236561
584.042	0.240697
583.56	0.235999
583.078	0.230056
582.595	0.22172
582.113	0.213793
581.631	0.219354
581.148	0.233277
580.666	0.233825
580.184	0.223052
579.702	0.232477
579.219	0.268426
578.737	0.285865
578.255	0.256922
577.773	0.220196
577.29	0.213753
576.808	0.22271
576.326	0.221601
575.843	0.222668
575.361	0.244045
574.879	0.262606
574.397	0.258783
573.914	0.249564
573.432	0.251136
572.95	0.242096
572.467	0.210017
571.985	0.188094
571.503	0.205291
571.021	0.23104
570.538	0.226269
570.056	0.211242
569.574	0.221073
569.091	0.243663
568.609	0.247011
568.127	0.239343
567.645	0.239422
567.162	0.227646
566.68	0.194115
566.198	0.185988
565.716	0.23539
565.233	0.288926
564.751	0.266048
564.269	0.196006
563.786	0.173271
563.304	0.216232
562.822	0.257458
562.34	0.253099
561.857	0.240062
561.375	0.246624
560.893	0.243049
560.41	0.212618
559.928	0.198054
559.446	0.22802
558.964	0.266652
558.481	0.263494
557.999	0.231005
557.517	0.215707
557.034	0.226342
556.552	0.233748
556.07	0.231249
555.588	0.239935
555.105	0.259958
554.623	0.257071
554.141	0.22324
553.658	0.206639
553.176	0.237438
552.694	0.292262
552.212	0.301783
551.729	0.244043
551.247	0.192404
550.765	0.201047
550.283	0.244806
549.8	0.259862
549.318	0.233034
548.836	0.215185
548.353	0.234086
547.871	0.259914
547.389	0.259999
546.907	0.246454
546.424	0.253736
545.942	0.284768
545.46	0.309383
544.977	0.305557
544.495	0.280373
544.013	0.253744
543.531	0.242981
543.048	0.257995
542.566	0.290408
542.084	0.313332
541.601	0.307604
541.119	0.283248
540.637	0.255813
540.155	0.225999
539.672	0.201107
539.19	0.203521
538.708	0.230813
538.225	0.249055
537.743	0.239277
537.261	0.223984
536.779	0.232517
536.296	0.251142
535.814	0.252641
535.332	0.238623
534.85	0.240035
534.367	0.266213
533.885	0.287792
533.403	0.281654
532.92	0.257187
532.438	0.237813
531.956	0.230971
531.474	0.231817
530.991	0.240197
530.509	0.256641
530.027	0.264598
529.544	0.248208
529.062	0.230691
528.58	0.24462
528.098	0.299847
527.615	0.339306
527.133	0.293833
526.651	0.21169
526.168	0.151587
525.686	0.141183
525.204	0.138782
524.722	0.12167
524.239	0.129498
523.757	0.190778
523.275	0.225827
522.792	0.220726
522.31	0.182225
521.828	0.221848
521.346	0.279122
520.863	0.265267
520.381	0.229549
519.899	0.218786
519.417	0.278307
518.934	0.26127
518.452	0.165381
517.97	0.102807
517.487	0.0704931
517.005	0.143805
516.523	0.27736
516.041	0.372159
515.558	0.220673
515.076	0.174328
514.594	0.129197
514.111	0.167407
513.629	0.340623
513.147	0.226348
512.665	0.167332
512.182	0.162419
511.7	0.197063
511.218	0.127827
510.735	0.182177
510.253	0.270405
509.771	0.28812
509.289	0.21094
508.806	0.221616
508.324	0.365934
507.842	0.303662
507.36	0.169871
506.877	0.018856
506.395	0.14168
505.913	0.310506
505.43	0.233343
504.948	0.144121
504.466	0.143715
503.984	0.234335
503.501	0.175763
503.019	0
502.537	0.00999847
502.054	0.122069
501.572	0.177906
501.09	0.159203
500.608	0.313423
500.125	0.394046
499.643	0.472764
