##TITLE=нпво 3.3 1 без апод
##$NOTE=17.03.2022 16:31:1 ^0 x10 v:1 [Без приставки]
##$ITAB=-1,-1
##FIRSTX=5000.29
##DELTAX=-0.482281
##NPOINTS=9333
##XUNITS=1/CM
##YUNITS=ABSORBANCE
5000.29	0.21727
4999.81	0.25901
4999.32	0.245675
4998.84	0.182986
4998.36	0.140958
4997.88	0.157611
4997.39	0.187354
4996.91	0.181265
4996.43	0.148017
4995.95	0.153219
4995.47	0.214497
4994.98	0.266162
4994.5	0.234916
4994.02	0.165483
4993.54	0.148959
4993.05	0.194089
4992.57	0.214896
4992.09	0.176974
4991.61	0.153348
4991.13	0.196
4990.64	0.263701
4990.16	0.27978
4989.68	0.242852
4989.2	0.190567
4988.71	0.130948
4988.23	0.0688447
4987.75	0.0512902
4987.27	0.119821
4986.78	0.207294
4986.3	0.224466
4985.82	0.18177
4985.34	0.162155
4984.86	0.225854
4984.37	0.31908
4983.89	0.366677
4983.41	0.341861
4982.93	0.260389
4982.44	0.19512
4981.96	0.213006
4981.48	0.302557
4981	0.363242
4980.51	0.282083
4980.03	0.140309
4979.55	0.0727927
4979.07	0.101594
4978.59	0.182169
4978.1	0.253553
4977.62	0.277066
4977.14	0.264436
4976.66	0.247376
4976.17	0.254934
4975.69	0.282967
4975.21	0.278666
4974.73	0.223374
4974.25	0.171612
4973.76	0.193966
4973.28	0.266536
4972.8	0.261764
4972.32	0.169091
4971.83	0.11815
4971.35	0.171897
4970.87	0.263321
4970.39	0.268434
4969.9	0.201767
4969.42	0.17964
4968.94	0.200265
4968.46	0.195514
4967.98	0.15412
4967.49	0.15693
4967.01	0.232671
4966.53	0.283147
4966.05	0.256433
4965.56	0.22101
4965.08	0.238594
4964.6	0.275006
4964.12	0.255887
4963.64	0.20832
4963.15	0.198413
4962.67	0.224482
4962.19	0.217827
4961.71	0.174847
4961.22	0.15245
4960.74	0.173153
4960.26	0.210208
4959.78	0.219
4959.29	0.208531
4958.81	0.213741
4958.33	0.239499
4957.85	0.263518
4957.37	0.263997
4956.88	0.239052
4956.4	0.20332
4955.92	0.175661
4955.44	0.169915
4954.95	0.185788
4954.47	0.204324
4953.99	0.20463
4953.51	0.173969
4953.02	0.116928
4952.54	0.0804887
4952.06	0.103668
4951.58	0.170902
4951.1	0.22889
4950.61	0.218077
4950.13	0.179006
4949.65	0.205205
4949.17	0.295839
4948.68	0.321099
4948.2	0.197715
4947.72	0.0686956
4947.24	0.0696411
4946.76	0.188455
4946.27	0.297137
4945.79	0.306083
4945.31	0.256795
4944.83	0.215962
4944.34	0.189846
4943.86	0.171213
4943.38	0.175196
4942.9	0.19275
4942.41	0.179899
4941.93	0.139762
4941.45	0.148401
4940.97	0.248202
4940.49	0.314701
4940	0.254373
4939.52	0.168348
4939.04	0.175951
4938.56	0.261816
4938.07	0.288173
4937.59	0.223177
4937.11	0.152698
4936.63	0.138496
4936.15	0.144918
4935.66	0.136498
4935.18	0.151313
4934.7	0.217576
4934.22	0.257313
4933.73	0.206944
4933.25	0.16579
4932.77	0.221525
4932.29	0.320265
4931.8	0.301005
4931.32	0.17789
4930.84	0.0961415
4930.36	0.125122
4929.88	0.21272
4929.39	0.284808
4928.91	0.333578
4928.43	0.349619
4927.95	0.298122
4927.46	0.211452
4926.98	0.159487
4926.5	0.164918
4926.02	0.207104
4925.53	0.262944
4925.05	0.311326
4924.57	0.29102
4924.09	0.176692
4923.61	0.0940575
4923.12	0.146303
4922.64	0.269635
4922.16	0.281015
4921.68	0.14057
4921.19	0.0516989
4920.71	0.135136
4920.23	0.28815
4919.75	0.326168
4919.27	0.243886
4918.78	0.178679
4918.3	0.181932
4917.82	0.191258
4917.34	0.166123
4916.85	0.138441
4916.37	0.138614
4915.89	0.154658
4915.41	0.159612
4914.92	0.144279
4914.44	0.117267
4913.96	0.111587
4913.48	0.160827
4913	0.232844
4912.51	0.241061
4912.03	0.164947
4911.55	0.104487
4911.07	0.151783
4910.58	0.232107
4910.1	0.234358
4909.62	0.188447
4909.14	0.182827
4908.66	0.218045
4908.17	0.204152
4907.69	0.131031
4907.21	0.0892702
4906.73	0.135756
4906.24	0.216533
4905.76	0.269859
4905.28	0.28927
4904.8	0.272929
4904.31	0.21793
4903.83	0.157337
4903.35	0.139797
4902.87	0.177295
4902.39	0.213993
4901.9	0.207932
4901.42	0.17658
4900.94	0.147115
4900.46	0.126673
4899.97	0.123199
4899.49	0.157821
4899.01	0.229759
4898.53	0.270292
4898.04	0.216046
4897.56	0.138972
4897.08	0.122771
4896.6	0.16367
4896.12	0.193969
4895.63	0.166099
4895.15	0.110158
4894.67	0.0912138
4894.19	0.14131
4893.7	0.222772
4893.22	0.266481
4892.74	0.256028
4892.26	0.239568
4891.78	0.249378
4891.29	0.261516
4890.81	0.253547
4890.33	0.242418
4889.85	0.257221
4889.36	0.280732
4888.88	0.268138
4888.4	0.234214
4887.92	0.226491
4887.43	0.251823
4886.95	0.27221
4886.47	0.260505
4885.99	0.225777
4885.51	0.195011
4885.02	0.183365
4884.54	0.19147
4884.06	0.208172
4883.58	0.209032
4883.09	0.189605
4882.61	0.180908
4882.13	0.20993
4881.65	0.245669
4881.17	0.231151
4880.68	0.170546
4880.2	0.123819
4879.72	0.142819
4879.24	0.204743
4878.75	0.259605
4878.27	0.272157
4877.79	0.23123
4877.31	0.183187
4876.82	0.174095
4876.34	0.200091
4875.86	0.220055
4875.38	0.213291
4874.9	0.222095
4874.41	0.282423
4873.93	0.356502
4873.45	0.352876
4872.97	0.271826
4872.48	0.209556
4872	0.214349
4871.52	0.248662
4871.04	0.260035
4870.55	0.2397
4870.07	0.214369
4869.59	0.210959
4869.11	0.23051
4868.63	0.247823
4868.14	0.237338
4867.66	0.210392
4867.18	0.191604
4866.7	0.177974
4866.21	0.152698
4865.73	0.132758
4865.25	0.150276
4864.77	0.188891
4864.29	0.196889
4863.8	0.183236
4863.32	0.233707
4862.84	0.371001
4862.36	0.453806
4861.87	0.361352
4861.39	0.244632
4860.91	0.235177
4860.43	0.296468
4859.94	0.29462
4859.46	0.219675
4858.98	0.192548
4858.5	0.228928
4858.02	0.233962
4857.53	0.170638
4857.05	0.13557
4856.57	0.196091
4856.09	0.280517
4855.6	0.302048
4855.12	0.260136
4854.64	0.204017
4854.16	0.165418
4853.68	0.171836
4853.19	0.249339
4852.71	0.33969
4852.23	0.305513
4851.75	0.170137
4851.26	0.0871607
4850.78	0.129374
4850.3	0.217351
4849.82	0.243494
4849.33	0.219338
4848.85	0.201447
4848.37	0.182548
4847.89	0.149448
4847.41	0.155204
4846.92	0.231474
4846.44	0.30663
4845.96	0.28209
4845.48	0.211206
4844.99	0.205674
4844.51	0.258128
4844.03	0.268609
4843.55	0.215357
4843.06	0.187274
4842.58	0.203912
4842.1	0.204944
4841.62	0.17819
4841.14	0.190122
4840.65	0.257239
4840.17	0.291124
4839.69	0.224713
4839.21	0.165999
4838.72	0.194678
4838.24	0.255642
4837.76	0.245189
4837.28	0.172538
4836.8	0.124514
4836.31	0.127925
4835.83	0.160268
4835.35	0.185726
4834.87	0.186546
4834.38	0.157484
4833.9	0.117499
4833.42	0.128727
4832.94	0.202636
4832.45	0.253466
4831.97	0.222406
4831.49	0.176824
4831.01	0.214673
4830.53	0.316673
4830.04	0.330738
4829.56	0.22566
4829.08	0.157726
4828.6	0.185742
4828.11	0.242026
4827.63	0.246263
4827.15	0.242117
4826.67	0.308259
4826.19	0.398732
4825.7	0.369169
4825.22	0.260659
4824.74	0.193202
4824.26	0.190087
4823.77	0.215443
4823.29	0.246171
4822.81	0.295033
4822.33	0.33093
4821.84	0.284066
4821.36	0.186413
4820.88	0.131108
4820.4	0.153182
4819.92	0.212064
4819.43	0.25573
4818.95	0.285403
4818.47	0.297793
4817.99	0.257164
4817.5	0.187487
4817.02	0.156382
4816.54	0.169545
4816.06	0.162905
4815.57	0.108053
4815.09	0.0822598
4814.61	0.143517
4814.13	0.232013
4813.65	0.247198
4813.16	0.204734
4812.68	0.196279
4812.2	0.228393
4811.72	0.220358
4811.23	0.158198
4810.75	0.120482
4810.27	0.152245
4809.79	0.203487
4809.31	0.205831
4808.82	0.163335
4808.34	0.129521
4807.86	0.136112
4807.38	0.1804
4806.89	0.238033
4806.41	0.25928
4805.93	0.217531
4805.45	0.147725
4804.96	0.106322
4804.48	0.142762
4804	0.252911
4803.52	0.360137
4803.04	0.374988
4802.55	0.286327
4802.07	0.184248
4801.59	0.152378
4801.11	0.189373
4800.62	0.21762
4800.14	0.1754
4799.66	0.108321
4799.18	0.0953727
4798.69	0.14333
4798.21	0.199905
4797.73	0.226838
4797.25	0.220999
4796.77	0.187167
4796.28	0.142784
4795.8	0.130611
4795.32	0.177855
4794.84	0.235304
4794.35	0.216451
4793.87	0.156179
4793.39	0.160232
4792.91	0.260651
4792.43	0.340152
4791.94	0.255571
4791.46	0.138172
4790.98	0.138571
4790.5	0.247169
4790.01	0.322888
4789.53	0.257455
4789.05	0.160074
4788.57	0.158009
4788.08	0.233903
4787.6	0.264345
4787.12	0.216905
4786.64	0.171282
4786.16	0.162961
4785.67	0.150435
4785.19	0.113065
4784.71	0.111427
4784.23	0.179817
4783.74	0.25013
4783.26	0.236101
4782.78	0.180736
4782.3	0.193855
4781.82	0.282302
4781.33	0.327268
4780.85	0.257545
4780.37	0.172538
4779.89	0.174755
4779.4	0.22249
4778.92	0.221329
4778.44	0.170128
4777.96	0.144911
4777.47	0.175063
4776.99	0.205073
4776.51	0.211202
4776.03	0.23101
4775.55	0.260506
4775.06	0.234614
4774.58	0.151744
4774.1	0.107573
4773.62	0.146518
4773.13	0.196563
4772.65	0.190393
4772.17	0.17288
4771.69	0.216287
4771.2	0.285849
4770.72	0.278127
4770.24	0.194448
4769.76	0.136534
4769.28	0.141933
4768.79	0.161505
4768.31	0.161392
4767.83	0.170872
4767.35	0.206226
4766.86	0.226737
4766.38	0.193576
4765.9	0.149094
4765.42	0.146642
4764.94	0.186361
4764.45	0.246367
4763.97	0.292231
4763.49	0.292038
4763.01	0.260114
4762.52	0.236629
4762.04	0.238751
4761.56	0.240866
4761.08	0.214837
4760.59	0.182435
4760.11	0.180712
4759.63	0.199631
4759.15	0.202448
4758.67	0.196908
4758.18	0.219041
4757.7	0.240086
4757.22	0.202687
4756.74	0.129377
4756.25	0.0900805
4755.77	0.127461
4755.29	0.186927
4754.81	0.200972
4754.33	0.193214
4753.84	0.204032
4753.36	0.226787
4752.88	0.242327
4752.4	0.256342
4751.91	0.254234
4751.43	0.202904
4750.95	0.142695
4750.47	0.139648
4749.98	0.20937
4749.5	0.266932
4749.02	0.225681
4748.54	0.155674
4748.06	0.146935
4747.57	0.209913
4747.09	0.264498
4746.61	0.280568
4746.13	0.288322
4745.64	0.276364
4745.16	0.222143
4744.68	0.162213
4744.2	0.127768
4743.71	0.114376
4743.23	0.122468
4742.75	0.17007
4742.27	0.251159
4741.79	0.294804
4741.3	0.229159
4740.82	0.161851
4740.34	0.180496
4739.86	0.244658
4739.37	0.266958
4738.89	0.24007
4738.41	0.240361
4737.93	0.26029
4737.45	0.231522
4736.96	0.180662
4736.48	0.195711
4736	0.273766
4735.52	0.319523
4735.03	0.289286
4734.55	0.259672
4734.07	0.261003
4733.59	0.248821
4733.1	0.223205
4732.62	0.236896
4732.14	0.2755
4731.66	0.265665
4731.18	0.208931
4730.69	0.209152
4730.21	0.265394
4729.73	0.270362
4729.25	0.193591
4728.76	0.155782
4728.28	0.211402
4727.8	0.271364
4727.32	0.229275
4726.84	0.147167
4726.35	0.126322
4725.87	0.145932
4725.39	0.142056
4724.91	0.131829
4724.42	0.160498
4723.94	0.203984
4723.46	0.212582
4722.98	0.203103
4722.49	0.228377
4722.01	0.262826
4721.53	0.242511
4721.05	0.180276
4720.57	0.148818
4720.08	0.172662
4719.6	0.211461
4719.12	0.237081
4718.64	0.24903
4718.15	0.240235
4717.67	0.219911
4717.19	0.219042
4716.71	0.233097
4716.22	0.2201
4715.74	0.178504
4715.26	0.176968
4714.78	0.226883
4714.3	0.241636
4713.81	0.170765
4713.33	0.133258
4712.85	0.219152
4712.37	0.35526
4711.88	0.344156
4711.4	0.205468
4710.92	0.154765
4710.44	0.227548
4709.96	0.303068
4709.47	0.282147
4708.99	0.234259
4708.51	0.221805
4708.03	0.199858
4707.54	0.149262
4707.06	0.130557
4706.58	0.178006
4706.1	0.225267
4705.61	0.199384
4705.13	0.187977
4704.65	0.255515
4704.17	0.340291
4703.69	0.296193
4703.2	0.176487
4702.72	0.134038
4702.24	0.177651
4701.76	0.206479
4701.27	0.170262
4700.79	0.139
4700.31	0.161872
4699.83	0.194666
4699.35	0.182633
4698.86	0.156147
4698.38	0.15975
4697.9	0.179613
4697.42	0.184922
4696.93	0.189544
4696.45	0.216388
4695.97	0.241154
4695.49	0.230312
4695	0.188972
4694.52	0.148436
4694.04	0.129163
4693.56	0.128016
4693.08	0.148384
4692.59	0.18995
4692.11	0.211463
4691.63	0.193612
4691.15	0.17653
4690.66	0.192568
4690.18	0.214284
4689.7	0.19253
4689.22	0.15213
4688.73	0.14918
4688.25	0.197143
4687.77	0.234596
4687.29	0.223158
4686.81	0.194835
4686.32	0.18698
4685.84	0.196276
4685.36	0.203518
4684.88	0.205531
4684.39	0.20284
4683.91	0.191643
4683.43	0.179051
4682.95	0.180917
4682.47	0.202564
4681.98	0.236424
4681.5	0.273733
4681.02	0.288655
4680.54	0.238426
4680.05	0.146339
4679.57	0.0897265
4679.09	0.121397
4678.61	0.214087
4678.12	0.276625
4677.64	0.281004
4677.16	0.275378
4676.68	0.284492
4676.2	0.26735
4675.71	0.215836
4675.23	0.183753
4674.75	0.21334
4674.27	0.256305
4673.78	0.23604
4673.3	0.152746
4672.82	0.0771703
4672.34	0.0863037
4671.86	0.167251
4671.37	0.257394
4670.89	0.299658
4670.41	0.271565
4669.93	0.223715
4669.44	0.215751
4668.96	0.24103
4668.48	0.238369
4668	0.196032
4667.51	0.169462
4667.03	0.189064
4666.55	0.214242
4666.07	0.20512
4665.59	0.185674
4665.1	0.195246
4664.62	0.214261
4664.14	0.210498
4663.66	0.199325
4663.17	0.206291
4662.69	0.209836
4662.21	0.180215
4661.73	0.145142
4661.24	0.152689
4660.76	0.196325
4660.28	0.223481
4659.8	0.228791
4659.32	0.238305
4658.83	0.234117
4658.35	0.183653
4657.87	0.122086
4657.39	0.124149
4656.9	0.209858
4656.42	0.285604
4655.94	0.261407
4655.46	0.192388
4654.98	0.182261
4654.49	0.238131
4654.01	0.28376
4653.53	0.26956
4653.05	0.234514
4652.56	0.226518
4652.08	0.234332
4651.6	0.224737
4651.12	0.199657
4650.63	0.191997
4650.15	0.210294
4649.67	0.220196
4649.19	0.200478
4648.71	0.183264
4648.22	0.205588
4647.74	0.259026
4647.26	0.280744
4646.78	0.243425
4646.29	0.195345
4645.81	0.178461
4645.33	0.197278
4644.85	0.228872
4644.37	0.245694
4643.88	0.232285
4643.4	0.198411
4642.92	0.173049
4642.44	0.166062
4641.95	0.163646
4641.47	0.164499
4640.99	0.192541
4640.51	0.247558
4640.02	0.269318
4639.54	0.227374
4639.06	0.19759
4638.58	0.258514
4638.1	0.361156
4637.61	0.353378
4637.13	0.242333
4636.65	0.182383
4636.17	0.232065
4635.68	0.302816
4635.2	0.287068
4634.72	0.234883
4634.24	0.241257
4633.75	0.280342
4633.27	0.271043
4632.79	0.230633
4632.31	0.235269
4631.83	0.268308
4631.34	0.251515
4630.86	0.190862
4630.38	0.158759
4629.9	0.192621
4629.41	0.250043
4628.93	0.269633
4628.45	0.254106
4627.97	0.231694
4627.49	0.215218
4627	0.211148
4626.52	0.214309
4626.04	0.203504
4625.56	0.177922
4625.07	0.173822
4624.59	0.208138
4624.11	0.249503
4623.63	0.260947
4623.14	0.248497
4622.66	0.234686
4622.18	0.206925
4621.7	0.158529
4621.22	0.131662
4620.73	0.152581
4620.25	0.184837
4619.77	0.194074
4619.29	0.210322
4618.8	0.256255
4618.32	0.270613
4617.84	0.204068
4617.36	0.131985
4616.88	0.16112
4616.39	0.252374
4615.91	0.257246
4615.43	0.167894
4614.95	0.134645
4614.46	0.207783
4613.98	0.294958
4613.5	0.280618
4613.02	0.212731
4612.53	0.19648
4612.05	0.223631
4611.57	0.234989
4611.09	0.213682
4610.61	0.189656
4610.12	0.173063
4609.64	0.159663
4609.16	0.162262
4608.68	0.189173
4608.19	0.216916
4607.71	0.219893
4607.23	0.212926
4606.75	0.217069
4606.26	0.222381
4605.78	0.216257
4605.3	0.207165
4604.82	0.196377
4604.34	0.170852
4603.85	0.143217
4603.37	0.148859
4602.89	0.184448
4602.41	0.19925
4601.92	0.169284
4601.44	0.149896
4600.96	0.179673
4600.48	0.215789
4600	0.218483
4599.51	0.219126
4599.03	0.261558
4598.55	0.316882
4598.07	0.302863
4597.58	0.232905
4597.1	0.195604
4596.62	0.202337
4596.14	0.194554
4595.65	0.149193
4595.17	0.125483
4594.69	0.164355
4594.21	0.224465
4593.73	0.229948
4593.24	0.17733
4592.76	0.132278
4592.28	0.132049
4591.8	0.151769
4591.31	0.164894
4590.83	0.181009
4590.35	0.207544
4589.87	0.217758
4589.39	0.201769
4588.9	0.198045
4588.42	0.236855
4587.94	0.274545
4587.46	0.253368
4586.97	0.185443
4586.49	0.131809
4586.01	0.14034
4585.53	0.183438
4585.04	0.220836
4584.56	0.24824
4584.08	0.256971
4583.6	0.233379
4583.12	0.202162
4582.63	0.207077
4582.15	0.241583
4581.67	0.246655
4581.19	0.215877
4580.7	0.20276
4580.22	0.226321
4579.74	0.219137
4579.26	0.152781
4578.77	0.114907
4578.29	0.167596
4577.81	0.234155
4577.33	0.198936
4576.85	0.100512
4576.36	0.0644751
4575.88	0.108667
4575.4	0.151604
4574.92	0.159284
4574.43	0.171005
4573.95	0.193762
4573.47	0.182301
4572.99	0.147872
4572.51	0.149026
4572.02	0.183515
4571.54	0.191961
4571.06	0.176709
4570.58	0.200596
4570.09	0.255901
4569.61	0.241515
4569.13	0.133548
4568.65	0.0846868
4568.16	0.13113
4567.68	0.180315
4567.2	0.161847
4566.72	0.139097
4566.24	0.1974
4565.75	0.279606
4565.27	0.283529
4564.79	0.223381
4564.31	0.197846
4563.82	0.202402
4563.34	0.180947
4562.86	0.147169
4562.38	0.158536
4561.9	0.203636
4561.41	0.210055
4560.93	0.181113
4560.45	0.194886
4559.97	0.253325
4559.48	0.274134
4559	0.222765
4558.52	0.177056
4558.04	0.193163
4557.55	0.237511
4557.07	0.241477
4556.59	0.212002
4556.11	0.199709
4555.63	0.206984
4555.14	0.194463
4554.66	0.150001
4554.18	0.114343
4553.7	0.129697
4553.21	0.194265
4552.73	0.249905
4552.25	0.249953
4551.77	0.211183
4551.28	0.17833
4550.8	0.167686
4550.32	0.159783
4549.84	0.148995
4549.36	0.158654
4548.87	0.195228
4548.39	0.224974
4547.91	0.226639
4547.43	0.219834
4546.94	0.212072
4546.46	0.180188
4545.98	0.131365
4545.5	0.125319
4545.02	0.1738
4544.53	0.210267
4544.05	0.185003
4543.57	0.146689
4543.09	0.165608
4542.6	0.215079
4542.12	0.220979
4541.64	0.186676
4541.16	0.179362
4540.67	0.209137
4540.19	0.219818
4539.71	0.194007
4539.23	0.183475
4538.75	0.202437
4538.26	0.209841
4537.78	0.185346
4537.3	0.17522
4536.82	0.20255
4536.33	0.236154
4535.85	0.236061
4535.37	0.211731
4534.89	0.198878
4534.41	0.205647
4533.92	0.228712
4533.44	0.254473
4532.96	0.251713
4532.48	0.204638
4531.99	0.143106
4531.51	0.137508
4531.03	0.207169
4530.55	0.272249
4530.06	0.264661
4529.58	0.222399
4529.1	0.219107
4528.62	0.253504
4528.14	0.267127
4527.65	0.237996
4527.17	0.206714
4526.69	0.202328
4526.21	0.211584
4525.72	0.215903
4525.24	0.224632
4524.76	0.248442
4524.28	0.269227
4523.79	0.248929
4523.31	0.193068
4522.83	0.156028
4522.35	0.163147
4521.87	0.197319
4521.38	0.222335
4520.9	0.217181
4520.42	0.196166
4519.94	0.183977
4519.45	0.191942
4518.97	0.222804
4518.49	0.266997
4518.01	0.287074
4517.53	0.251527
4517.04	0.181606
4516.56	0.124301
4516.08	0.109429
4515.6	0.132432
4515.11	0.178673
4514.63	0.235721
4514.15	0.261291
4513.67	0.217418
4513.18	0.149939
4512.7	0.140485
4512.22	0.210487
4511.74	0.27734
4511.26	0.258463
4510.77	0.190346
4510.29	0.156998
4509.81	0.167128
4509.33	0.17742
4508.84	0.189455
4508.36	0.224289
4507.88	0.248439
4507.4	0.217259
4506.92	0.177245
4506.43	0.187882
4505.95	0.221204
4505.47	0.206874
4504.99	0.173164
4504.5	0.202267
4504.02	0.278981
4503.54	0.284932
4503.06	0.203801
4502.57	0.164028
4502.09	0.234552
4501.61	0.328301
4501.13	0.305682
4500.65	0.200692
4500.16	0.142705
4499.68	0.157539
4499.2	0.190527
4498.72	0.203663
4498.23	0.201426
4497.75	0.191746
4497.27	0.177045
4496.79	0.169704
4496.3	0.174746
4495.82	0.176145
4495.34	0.174583
4494.86	0.193336
4494.38	0.223704
4493.89	0.213318
4493.41	0.163512
4492.93	0.151079
4492.45	0.202625
4491.96	0.247699
4491.48	0.22375
4491	0.181489
4490.52	0.194908
4490.04	0.226773
4489.55	0.204754
4489.07	0.156636
4488.59	0.157281
4488.11	0.206981
4487.62	0.237121
4487.14	0.226398
4486.66	0.213973
4486.18	0.201308
4485.69	0.161079
4485.21	0.117967
4484.73	0.136928
4484.25	0.191263
4483.77	0.200767
4483.28	0.175577
4482.8	0.190909
4482.32	0.259648
4481.84	0.288831
4481.35	0.232139
4480.87	0.174937
4480.39	0.182648
4479.91	0.201559
4479.43	0.173637
4478.94	0.139387
4478.46	0.160428
4477.98	0.20533
4477.5	0.201858
4477.01	0.165281
4476.53	0.172205
4476.05	0.22511
4475.57	0.25144
4475.08	0.221554
4474.6	0.197558
4474.12	0.227022
4473.64	0.26883
4473.16	0.252694
4472.67	0.18237
4472.19	0.139275
4471.71	0.168011
4471.23	0.232506
4470.74	0.261692
4470.26	0.231384
4469.78	0.188606
4469.3	0.176025
4468.81	0.187227
4468.33	0.194158
4467.85	0.19378
4467.37	0.200435
4466.89	0.203586
4466.4	0.18276
4465.92	0.158302
4465.44	0.17463
4464.96	0.234781
4464.47	0.268809
4463.99	0.234048
4463.51	0.183355
4463.03	0.174774
4462.55	0.207718
4462.06	0.24494
4461.58	0.264704
4461.1	0.256387
4460.62	0.20856
4460.13	0.151941
4459.65	0.147594
4459.17	0.216027
4458.69	0.298817
4458.2	0.294865
4457.72	0.211483
4457.24	0.157765
4456.76	0.175125
4456.28	0.209142
4455.79	0.20912
4455.31	0.200855
4454.83	0.2194
4454.35	0.245048
4453.86	0.237472
4453.38	0.215757
4452.9	0.218137
4452.42	0.234789
4451.94	0.227626
4451.45	0.194206
4450.97	0.175928
4450.49	0.18928
4450.01	0.215745
4449.52	0.227755
4449.04	0.217309
4448.56	0.193513
4448.08	0.166718
4447.59	0.155274
4447.11	0.173449
4446.63	0.212837
4446.15	0.262224
4445.67	0.305537
4445.18	0.306013
4444.7	0.252257
4444.22	0.185925
4443.74	0.158105
4443.25	0.186748
4442.77	0.231873
4442.29	0.248419
4441.81	0.231667
4441.32	0.205399
4440.84	0.19279
4440.36	0.195656
4439.88	0.204743
4439.4	0.202423
4438.91	0.175763
4438.43	0.153271
4437.95	0.174711
4437.47	0.229988
4436.98	0.245519
4436.5	0.187485
4436.02	0.14173
4435.54	0.168743
4435.06	0.221009
4434.57	0.202712
4434.09	0.126388
4433.61	0.110942
4433.13	0.187094
4432.64	0.261159
4432.16	0.25438
4431.68	0.2213
4431.2	0.235718
4430.71	0.265974
4430.23	0.236726
4429.75	0.171691
4429.27	0.161289
4428.79	0.206608
4428.3	0.237096
4427.82	0.222694
4427.34	0.205111
4426.86	0.222658
4426.37	0.252923
4425.89	0.258241
4425.41	0.243303
4424.93	0.227369
4424.45	0.2124
4423.96	0.20022
4423.48	0.203977
4423	0.222795
4422.52	0.232794
4422.03	0.215078
4421.55	0.188471
4421.07	0.18327
4420.59	0.194398
4420.1	0.19254
4419.62	0.166739
4419.14	0.149639
4418.66	0.176954
4418.18	0.233415
4417.69	0.259119
4417.21	0.214266
4416.73	0.139912
4416.25	0.117409
4415.76	0.164294
4415.28	0.219726
4414.8	0.243898
4414.32	0.254494
4413.83	0.263226
4413.35	0.234841
4412.87	0.162299
4412.39	0.10695
4411.91	0.129362
4411.42	0.206385
4410.94	0.240294
4410.46	0.203052
4409.98	0.168631
4409.49	0.187524
4409.01	0.217657
4408.53	0.196039
4408.05	0.151234
4407.57	0.160054
4407.08	0.233844
4406.6	0.290989
4406.12	0.263729
4405.64	0.188908
4405.15	0.146301
4404.67	0.160733
4404.19	0.186103
4403.71	0.191331
4403.22	0.196937
4402.74	0.220243
4402.26	0.236032
4401.78	0.218946
4401.3	0.195493
4400.81	0.204884
4400.33	0.223465
4399.85	0.195438
4399.37	0.138242
4398.88	0.132812
4398.4	0.203136
4397.92	0.266113
4397.44	0.23932
4396.96	0.176963
4396.47	0.182461
4395.99	0.250584
4395.51	0.289279
4395.03	0.249749
4394.54	0.192383
4394.06	0.179661
4393.58	0.197949
4393.1	0.202054
4392.61	0.182236
4392.13	0.164252
4391.65	0.167479
4391.17	0.188238
4390.69	0.201703
4390.2	0.185529
4389.72	0.156085
4389.24	0.155767
4388.76	0.198901
4388.27	0.244967
4387.79	0.249257
4387.31	0.230767
4386.83	0.227354
4386.34	0.225587
4385.86	0.192175
4385.38	0.150791
4384.9	0.156678
4384.42	0.204481
4383.93	0.233331
4383.45	0.224758
4382.97	0.221507
4382.49	0.241348
4382	0.250568
4381.52	0.23831
4381.04	0.242913
4380.56	0.274969
4380.08	0.28139
4379.59	0.231343
4379.11	0.186243
4378.63	0.195113
4378.15	0.236426
4377.66	0.252431
4377.18	0.229774
4376.7	0.196796
4376.22	0.165384
4375.73	0.146975
4375.25	0.164499
4374.77	0.20738
4374.29	0.223837
4373.81	0.193566
4373.32	0.170743
4372.84	0.198107
4372.36	0.236352
4371.88	0.223516
4371.39	0.17782
4370.91	0.167148
4370.43	0.200964
4369.95	0.217489
4369.46	0.188375
4368.98	0.152564
4368.5	0.14402
4368.02	0.161216
4367.54	0.188905
4367.05	0.220552
4366.57	0.243718
4366.09	0.238211
4365.61	0.210012
4365.12	0.183726
4364.64	0.168007
4364.16	0.161121
4363.68	0.170863
4363.2	0.201182
4362.71	0.227061
4362.23	0.213484
4361.75	0.178889
4361.27	0.170014
4360.78	0.192157
4360.3	0.206873
4359.82	0.19062
4359.34	0.170942
4358.85	0.168055
4358.37	0.170866
4357.89	0.169732
4357.41	0.177147
4356.93	0.199933
4356.44	0.224309
4355.96	0.237455
4355.48	0.24253
4355	0.234733
4354.51	0.201046
4354.03	0.161704
4353.55	0.157209
4353.07	0.192986
4352.59	0.220887
4352.1	0.202076
4351.62	0.169107
4351.14	0.173493
4350.66	0.217945
4350.17	0.252761
4349.69	0.247578
4349.21	0.214021
4348.73	0.179558
4348.24	0.17701
4347.76	0.214686
4347.28	0.25857
4346.8	0.252158
4346.32	0.191619
4345.83	0.159805
4345.35	0.206615
4344.87	0.269779
4344.39	0.253318
4343.9	0.179395
4343.42	0.148167
4342.94	0.195599
4342.46	0.244606
4341.97	0.222504
4341.49	0.175934
4341.01	0.180143
4340.53	0.220369
4340.05	0.226913
4339.56	0.193526
4339.08	0.178258
4338.6	0.216568
4338.12	0.260744
4337.63	0.24803
4337.15	0.186295
4336.67	0.135748
4336.19	0.133903
4335.71	0.168444
4335.22	0.214934
4334.74	0.251536
4334.26	0.253101
4333.78	0.214296
4333.29	0.165295
4332.81	0.140768
4332.33	0.154188
4331.85	0.193304
4331.36	0.223617
4330.88	0.216909
4330.4	0.187043
4329.92	0.173846
4329.44	0.202188
4328.95	0.249405
4328.47	0.259041
4327.99	0.211332
4327.51	0.155222
4327.02	0.148419
4326.54	0.184618
4326.06	0.208488
4325.58	0.193311
4325.1	0.176425
4324.61	0.197157
4324.13	0.237414
4323.65	0.254311
4323.17	0.239058
4322.68	0.216351
4322.2	0.201324
4321.72	0.189419
4321.24	0.178629
4320.75	0.172044
4320.27	0.163201
4319.79	0.147837
4319.31	0.143765
4318.83	0.171096
4318.34	0.213073
4317.86	0.216876
4317.38	0.178418
4316.9	0.156782
4316.41	0.187676
4315.93	0.241739
4315.45	0.248445
4314.97	0.202704
4314.48	0.169429
4314	0.185743
4313.52	0.226164
4313.04	0.245638
4312.56	0.235626
4312.07	0.220484
4311.59	0.217231
4311.11	0.214594
4310.63	0.196086
4310.14	0.168657
4309.66	0.156232
4309.18	0.161885
4308.7	0.165122
4308.22	0.158355
4307.73	0.160766
4307.25	0.186546
4306.77	0.212528
4306.29	0.202182
4305.8	0.169559
4305.32	0.165258
4304.84	0.203804
4304.36	0.243721
4303.87	0.239099
4303.39	0.212268
4302.91	0.203724
4302.43	0.217564
4301.95	0.234608
4301.46	0.243349
4300.98	0.246702
4300.5	0.242052
4300.02	0.228439
4299.53	0.217188
4299.05	0.209501
4298.57	0.187451
4298.09	0.153957
4297.61	0.146307
4297.12	0.175339
4296.64	0.193244
4296.16	0.159628
4295.68	0.122155
4295.19	0.146482
4294.71	0.203653
4294.23	0.209907
4293.75	0.164823
4293.26	0.165011
4292.78	0.239363
4292.3	0.299426
4291.82	0.266237
4291.34	0.19469
4290.85	0.179027
4290.37	0.208571
4289.89	0.216649
4289.41	0.197877
4288.92	0.202975
4288.44	0.234244
4287.96	0.234713
4287.48	0.200797
4286.99	0.189078
4286.51	0.213071
4286.03	0.220767
4285.55	0.184316
4285.07	0.149322
4284.58	0.152284
4284.1	0.168166
4283.62	0.157226
4283.14	0.131543
4282.65	0.130445
4282.17	0.163212
4281.69	0.218087
4281.21	0.277258
4280.73	0.31193
4280.24	0.297167
4279.76	0.245888
4279.28	0.209643
4278.8	0.214601
4278.31	0.227406
4277.83	0.216859
4277.35	0.202023
4276.87	0.211473
4276.38	0.22765
4275.9	0.223891
4275.42	0.218891
4274.94	0.239142
4274.46	0.258317
4273.97	0.238791
4273.49	0.200571
4273.01	0.188439
4272.53	0.190547
4272.04	0.168481
4271.56	0.138615
4271.08	0.156658
4270.6	0.225924
4270.12	0.268489
4269.63	0.249312
4269.15	0.214039
4268.67	0.193122
4268.19	0.175256
4267.7	0.167366
4267.22	0.201474
4266.74	0.264628
4266.26	0.266616
4265.77	0.191569
4265.29	0.1485
4264.81	0.194049
4264.33	0.273827
4263.85	0.271175
4263.36	0.206301
4262.88	0.180182
4262.4	0.198939
4261.92	0.190865
4261.43	0.149599
4260.95	0.147621
4260.47	0.216485
4259.99	0.28381
4259.5	0.267505
4259.02	0.207536
4258.54	0.171653
4258.06	0.178513
4257.58	0.194009
4257.09	0.190863
4256.61	0.175882
4256.13	0.163011
4255.65	0.156768
4255.16	0.152345
4254.68	0.14951
4254.2	0.16214
4253.72	0.199118
4253.24	0.23491
4252.75	0.225962
4252.27	0.169807
4251.79	0.132068
4251.31	0.157256
4250.82	0.206422
4250.34	0.200637
4249.86	0.14803
4249.38	0.127586
4248.89	0.164661
4248.41	0.212129
4247.93	0.215257
4247.45	0.204414
4246.97	0.217668
4246.48	0.237864
4246	0.231349
4245.52	0.212413
4245.04	0.211731
4244.55	0.221885
4244.07	0.221433
4243.59	0.213494
4243.11	0.204405
4242.63	0.182206
4242.14	0.156393
4241.66	0.160399
4241.18	0.200605
4240.7	0.226187
4240.21	0.187075
4239.73	0.142093
4239.25	0.163583
4238.77	0.248953
4238.28	0.300589
4237.8	0.261611
4237.32	0.204035
4236.84	0.192864
4236.36	0.223821
4235.87	0.246734
4235.39	0.246885
4234.91	0.23569
4234.43	0.218893
4233.94	0.205676
4233.46	0.207552
4232.98	0.220928
4232.5	0.225663
4232.01	0.215606
4231.53	0.214218
4231.05	0.230549
4230.57	0.231549
4230.09	0.193462
4229.6	0.15506
4229.12	0.159692
4228.64	0.198417
4228.16	0.22048
4227.67	0.207174
4227.19	0.194072
4226.71	0.199598
4226.23	0.191164
4225.75	0.152
4225.26	0.120378
4224.78	0.145552
4224.3	0.19491
4223.82	0.198864
4223.33	0.169578
4222.85	0.172365
4222.37	0.223793
4221.89	0.252085
4221.4	0.205335
4220.92	0.14172
4220.44	0.139089
4219.96	0.190545
4219.48	0.231286
4218.99	0.217593
4218.51	0.178132
4218.03	0.157269
4217.55	0.170096
4217.06	0.215053
4216.58	0.263517
4216.1	0.27263
4215.62	0.234625
4215.14	0.197305
4214.65	0.210323
4214.17	0.245969
4213.69	0.241789
4213.21	0.188659
4212.72	0.146388
4212.24	0.153063
4211.76	0.175977
4211.28	0.178076
4210.79	0.169953
4210.31	0.179023
4209.83	0.204478
4209.35	0.228533
4208.87	0.238341
4208.38	0.228045
4207.9	0.198913
4207.42	0.170401
4206.94	0.171996
4206.45	0.203531
4205.97	0.223691
4205.49	0.203543
4205.01	0.166855
4204.52	0.15336
4204.04	0.174175
4203.56	0.212861
4203.08	0.243899
4202.6	0.245585
4202.11	0.218503
4201.63	0.195605
4201.15	0.205961
4200.67	0.231707
4200.18	0.228413
4199.7	0.196859
4199.22	0.185918
4198.74	0.204201
4198.26	0.205559
4197.77	0.172141
4197.29	0.150194
4196.81	0.168123
4196.33	0.185014
4195.84	0.160945
4195.36	0.132695
4194.88	0.146927
4194.4	0.17602
4193.91	0.165027
4193.43	0.131018
4192.95	0.131562
4192.47	0.169647
4191.99	0.191283
4191.5	0.182849
4191.02	0.191432
4190.54	0.230021
4190.06	0.249238
4189.57	0.226477
4189.09	0.20558
4188.61	0.218471
4188.13	0.23499
4187.65	0.219994
4187.16	0.193644
4186.68	0.182866
4186.2	0.179805
4185.72	0.165923
4185.23	0.154347
4184.75	0.165356
4184.27	0.186866
4183.79	0.190045
4183.3	0.174614
4182.82	0.16189
4182.34	0.164547
4181.86	0.179093
4181.38	0.200108
4180.89	0.223813
4180.41	0.235918
4179.93	0.22406
4179.45	0.201813
4178.96	0.192875
4178.48	0.200067
4178	0.204772
4177.52	0.195547
4177.03	0.180535
4176.55	0.17313
4176.07	0.173073
4175.59	0.170073
4175.11	0.164208
4174.62	0.169648
4174.14	0.192695
4173.66	0.214215
4173.18	0.211207
4172.69	0.190109
4172.21	0.186597
4171.73	0.219818
4171.25	0.266114
4170.77	0.277565
4170.28	0.243936
4169.8	0.206061
4169.32	0.192668
4168.84	0.202797
4168.35	0.215906
4167.87	0.212165
4167.39	0.189732
4166.91	0.165367
4166.42	0.162532
4165.94	0.184811
4165.46	0.214212
4164.98	0.231203
4164.5	0.228822
4164.01	0.212064
4163.53	0.186782
4163.05	0.164935
4162.57	0.163293
4162.08	0.174442
4161.6	0.172717
4161.12	0.160427
4160.64	0.173517
4160.16	0.218808
4159.67	0.243094
4159.19	0.21488
4158.71	0.177652
4158.23	0.184547
4157.74	0.21485
4157.26	0.212397
4156.78	0.183318
4156.3	0.173954
4155.81	0.187507
4155.33	0.183573
4154.85	0.166945
4154.37	0.183269
4153.89	0.226844
4153.4	0.223563
4152.92	0.157266
4152.44	0.109817
4151.96	0.126774
4151.47	0.163128
4150.99	0.158638
4150.51	0.137247
4150.03	0.154959
4149.54	0.205236
4149.06	0.227058
4148.58	0.2023
4148.1	0.177678
4147.62	0.181388
4147.13	0.195242
4146.65	0.202951
4146.17	0.21068
4145.69	0.222063
4145.2	0.227847
4144.72	0.225299
4144.24	0.221826
4143.76	0.220442
4143.28	0.221337
4142.79	0.226589
4142.31	0.231168
4141.83	0.226458
4141.35	0.221668
4140.86	0.237363
4140.38	0.262359
4139.9	0.251086
4139.42	0.201027
4138.93	0.168957
4138.45	0.186089
4137.97	0.216392
4137.49	0.211626
4137.01	0.192731
4136.52	0.210109
4136.04	0.260747
4135.56	0.283601
4135.08	0.247645
4134.59	0.197849
4134.11	0.176679
4133.63	0.192325
4133.15	0.230928
4132.67	0.248279
4132.18	0.2057
4131.7	0.136248
4131.22	0.108186
4130.74	0.157714
4130.25	0.228954
4129.77	0.237799
4129.29	0.210872
4128.81	0.220847
4128.32	0.264304
4127.84	0.261907
4127.36	0.208776
4126.88	0.187587
4126.4	0.229765
4125.91	0.259092
4125.43	0.223577
4124.95	0.175637
4124.47	0.184056
4123.98	0.239942
4123.5	0.261279
4123.02	0.22199
4122.54	0.169706
4122.05	0.145574
4121.57	0.149585
4121.09	0.165881
4120.61	0.187811
4120.13	0.209608
4119.64	0.222907
4119.16	0.225716
4118.68	0.219884
4118.2	0.206417
4117.71	0.190462
4117.23	0.180673
4116.75	0.180713
4116.27	0.18716
4115.79	0.19692
4115.3	0.20855
4114.82	0.214834
4114.34	0.210379
4113.86	0.207125
4113.37	0.220161
4112.89	0.239006
4112.41	0.23632
4111.93	0.21271
4111.44	0.195327
4110.96	0.196561
4110.48	0.204043
4110	0.210574
4109.52	0.226411
4109.03	0.246121
4108.55	0.24206
4108.07	0.209262
4107.59	0.179671
4107.1	0.177797
4106.62	0.193789
4106.14	0.207763
4105.66	0.219813
4105.18	0.230088
4104.69	0.220419
4104.21	0.190506
4103.73	0.178382
4103.25	0.207091
4102.76	0.242566
4102.28	0.230744
4101.8	0.17791
4101.32	0.135074
4100.83	0.130729
4100.35	0.153822
4099.87	0.18051
4099.39	0.204319
4098.91	0.224817
4098.42	0.229338
4097.94	0.208415
4097.46	0.181621
4096.98	0.177508
4096.49	0.195864
4096.01	0.209753
4095.53	0.197836
4095.05	0.179496
4094.56	0.195515
4094.08	0.242895
4093.6	0.267532
4093.12	0.231588
4092.64	0.170368
4092.15	0.145974
4091.67	0.171666
4091.19	0.206721
4090.71	0.217023
4090.22	0.216245
4089.74	0.224654
4089.26	0.231529
4088.78	0.222301
4088.3	0.211745
4087.81	0.218381
4087.33	0.231479
4086.85	0.224058
4086.37	0.195149
4085.88	0.176102
4085.4	0.188533
4084.92	0.223097
4084.44	0.241194
4083.95	0.212558
4083.47	0.159121
4082.99	0.125556
4082.51	0.13613
4082.03	0.171682
4081.54	0.188971
4081.06	0.183543
4080.58	0.181331
4080.1	0.184646
4079.61	0.177636
4079.13	0.169553
4078.65	0.183693
4078.17	0.204476
4077.69	0.193603
4077.2	0.162105
4076.72	0.163671
4076.24	0.207526
4075.76	0.232512
4075.27	0.202557
4074.79	0.169365
4074.31	0.179178
4073.83	0.207326
4073.34	0.207074
4072.86	0.195928
4072.38	0.212263
4071.9	0.234692
4071.42	0.214531
4070.93	0.172873
4070.45	0.172348
4069.97	0.211388
4069.49	0.22953
4069	0.199584
4068.52	0.174958
4068.04	0.195148
4067.56	0.231678
4067.07	0.234148
4066.59	0.203512
4066.11	0.178828
4065.63	0.17529
4065.15	0.176425
4064.66	0.169743
4064.18	0.164417
4063.7	0.17553
4063.22	0.205235
4062.73	0.234228
4062.25	0.238372
4061.77	0.21013
4061.29	0.171931
4060.81	0.159102
4060.32	0.179978
4059.84	0.214184
4059.36	0.228893
4058.88	0.208469
4058.39	0.175919
4057.91	0.162262
4057.43	0.171767
4056.95	0.176655
4056.46	0.154974
4055.98	0.125134
4055.5	0.126271
4055.02	0.164252
4054.54	0.203836
4054.05	0.221828
4053.57	0.2258
4053.09	0.22678
4052.61	0.222427
4052.12	0.216071
4051.64	0.220528
4051.16	0.230944
4050.68	0.224794
4050.2	0.200844
4049.71	0.189198
4049.23	0.201559
4048.75	0.206767
4048.27	0.183698
4047.78	0.160075
4047.3	0.170425
4046.82	0.201027
4046.34	0.217316
4045.85	0.21785
4045.37	0.225868
4044.89	0.239119
4044.41	0.232805
4043.93	0.20537
4043.44	0.188475
4042.96	0.202373
4042.48	0.226179
4042	0.223136
4041.51	0.186144
4041.03	0.151574
4040.55	0.157363
4040.07	0.203501
4039.58	0.244572
4039.1	0.229963
4038.62	0.17869
4038.14	0.153227
4037.66	0.172349
4037.17	0.201113
4036.69	0.202936
4036.21	0.1861
4035.73	0.176036
4035.24	0.16983
4034.76	0.15793
4034.28	0.156971
4033.8	0.182888
4033.32	0.219066
4032.83	0.235774
4032.35	0.225341
4031.87	0.205754
4031.39	0.191264
4030.9	0.189716
4030.42	0.209059
4029.94	0.236512
4029.46	0.235926
4028.97	0.191827
4028.49	0.14248
4028.01	0.134644
4027.53	0.162173
4027.05	0.190446
4026.56	0.203139
4026.08	0.203539
4025.6	0.19436
4025.12	0.181741
4024.63	0.181571
4024.15	0.193882
4023.67	0.19349
4023.19	0.173788
4022.71	0.165488
4022.22	0.185237
4021.74	0.196538
4021.26	0.176464
4020.78	0.164058
4020.29	0.196425
4019.81	0.239709
4019.33	0.229112
4018.85	0.182661
4018.36	0.169568
4017.88	0.195133
4017.4	0.204979
4016.92	0.178252
4016.44	0.159659
4015.95	0.174073
4015.47	0.182771
4014.99	0.160003
4014.51	0.140791
4014.02	0.154823
4013.54	0.173881
4013.06	0.159206
4012.58	0.135069
4012.09	0.155678
4011.61	0.219646
4011.13	0.253055
4010.65	0.21744
4010.17	0.170129
4009.68	0.172257
4009.2	0.219377
4008.72	0.245776
4008.24	0.224615
4007.75	0.206481
4007.27	0.23283
4006.79	0.271517
4006.31	0.257556
4005.83	0.199771
4005.34	0.16882
4004.86	0.195347
4004.38	0.227383
4003.9	0.215714
4003.41	0.187179
4002.93	0.185836
4002.45	0.204619
4001.97	0.208565
4001.48	0.196923
4001	0.190884
4000.52	0.187711
4000.04	0.175257
3999.56	0.170029
3999.07	0.194398
3998.59	0.230152
3998.11	0.227744
3997.63	0.187034
3997.14	0.158907
3996.66	0.168576
3996.18	0.202111
3995.7	0.230628
3995.22	0.23505
3994.73	0.21774
3994.25	0.197963
3993.77	0.197433
3993.29	0.216699
3992.8	0.228926
3992.32	0.21915
3991.84	0.207552
3991.36	0.208546
3990.87	0.205353
3990.39	0.187654
3989.91	0.180757
3989.43	0.198222
3988.95	0.208685
3988.46	0.188135
3987.98	0.173485
3987.5	0.199399
3987.02	0.236404
3986.53	0.230476
3986.05	0.195417
3985.57	0.186285
3985.09	0.207214
3984.6	0.219089
3984.12	0.206987
3983.64	0.199246
3983.16	0.196593
3982.68	0.174628
3982.19	0.14849
3981.71	0.168633
3981.23	0.231827
3980.75	0.260511
3980.26	0.218073
3979.78	0.165299
3979.3	0.160548
3978.82	0.192647
3978.34	0.214639
3977.85	0.210426
3977.37	0.19784
3976.89	0.190794
3976.41	0.19154
3975.92	0.199058
3975.44	0.207568
3974.96	0.210913
3974.48	0.214629
3973.99	0.223508
3973.51	0.221271
3973.03	0.192323
3972.55	0.158629
3972.07	0.158989
3971.58	0.19552
3971.1	0.232761
3970.62	0.247432
3970.14	0.244076
3969.65	0.218706
3969.17	0.166899
3968.69	0.127961
3968.21	0.14422
3967.72	0.188345
3967.24	0.202504
3966.76	0.18155
3966.28	0.178385
3965.8	0.204446
3965.31	0.213013
3964.83	0.188555
3964.35	0.18613
3963.87	0.232218
3963.38	0.265641
3962.9	0.229254
3962.42	0.161063
3961.94	0.130229
3961.46	0.143695
3960.97	0.174346
3960.49	0.210757
3960.01	0.242113
3959.53	0.242019
3959.04	0.21112
3958.56	0.189375
3958.08	0.20067
3957.6	0.212666
3957.11	0.196137
3956.63	0.186072
3956.15	0.212472
3955.67	0.239319
3955.19	0.221382
3954.7	0.189343
3954.22	0.195861
3953.74	0.21819
3953.26	0.200323
3952.77	0.159129
3952.29	0.163795
3951.81	0.207022
3951.33	0.221083
3950.85	0.185357
3950.36	0.155451
3949.88	0.167759
3949.4	0.176127
3948.92	0.155113
3948.43	0.158067
3947.95	0.222175
3947.47	0.27716
3946.99	0.238851
3946.5	0.150459
3946.02	0.11618
3945.54	0.153719
3945.06	0.198564
3944.58	0.201919
3944.09	0.180316
3943.61	0.17207
3943.13	0.17626
3942.65	0.175152
3942.16	0.170499
3941.68	0.173105
3941.2	0.17853
3940.72	0.177391
3940.23	0.173829
3939.75	0.177024
3939.27	0.185451
3938.79	0.18958
3938.31	0.185653
3937.82	0.181265
3937.34	0.187013
3936.86	0.205273
3936.38	0.223567
3935.89	0.22441
3935.41	0.210674
3934.93	0.205746
3934.45	0.226447
3933.97	0.256231
3933.48	0.254632
3933	0.215306
3932.52	0.17194
3932.04	0.152475
3931.55	0.163399
3931.07	0.19644
3930.59	0.236118
3930.11	0.258883
3929.62	0.238776
3929.14	0.183805
3928.66	0.144333
3928.18	0.149751
3927.7	0.181122
3927.21	0.202883
3926.73	0.201681
3926.25	0.191494
3925.77	0.185754
3925.28	0.191837
3924.8	0.21632
3924.32	0.247396
3923.84	0.250139
3923.36	0.204197
3922.87	0.149558
3922.39	0.148976
3921.91	0.198581
3921.43	0.236513
3920.94	0.216035
3920.46	0.162893
3919.98	0.136896
3919.5	0.154006
3919.01	0.182989
3918.53	0.197267
3918.05	0.198885
3917.57	0.195668
3917.09	0.188407
3916.6	0.181679
3916.12	0.184628
3915.64	0.198713
3915.16	0.217089
3914.67	0.231671
3914.19	0.240518
3913.71	0.242993
3913.23	0.232031
3912.74	0.203076
3912.26	0.171017
3911.78	0.157158
3911.3	0.168013
3910.82	0.189557
3910.33	0.191252
3909.85	0.167844
3909.37	0.152847
3908.89	0.172457
3908.4	0.207511
3907.92	0.211579
3907.44	0.18458
3906.96	0.174294
3906.48	0.206877
3905.99	0.236306
3905.51	0.205531
3905.03	0.143235
3904.55	0.127539
3904.06	0.179027
3903.58	0.216563
3903.1	0.192345
3902.62	0.153426
3902.13	0.156518
3901.65	0.185875
3901.17	0.179138
3900.69	0.139152
3900.21	0.125679
3899.72	0.164565
3899.24	0.205408
3898.76	0.200797
3898.28	0.179306
3897.79	0.183401
3897.31	0.202901
3896.83	0.201905
3896.35	0.183952
3895.87	0.181797
3895.38	0.200058
3894.9	0.206721
3894.42	0.186713
3893.94	0.171131
3893.45	0.187145
3892.97	0.213177
3892.49	0.212431
3892.01	0.188843
3891.52	0.179026
3891.04	0.201446
3890.56	0.224835
3890.08	0.223483
3889.6	0.207691
3889.11	0.187516
3888.63	0.168465
3888.15	0.16358
3887.67	0.182113
3887.18	0.207337
3886.7	0.200797
3886.22	0.162978
3885.74	0.138893
3885.25	0.150883
3884.77	0.169102
3884.29	0.16484
3883.81	0.163787
3883.33	0.1882
3882.84	0.214121
3882.36	0.198301
3881.88	0.158025
3881.4	0.147322
3880.91	0.187704
3880.43	0.252261
3879.95	0.281096
3879.47	0.257264
3878.99	0.223121
3878.5	0.198752
3878.02	0.175516
3877.54	0.15379
3877.06	0.151311
3876.57	0.17295
3876.09	0.192741
3875.61	0.186336
3875.13	0.166139
3874.64	0.167768
3874.16	0.19737
3873.68	0.211639
3873.2	0.189103
3872.72	0.177333
3872.23	0.20603
3871.75	0.231403
3871.27	0.195059
3870.79	0.114779
3870.3	0.0753561
3869.82	0.11653
3869.34	0.161129
3868.86	0.144288
3868.38	0.122668
3867.89	0.163012
3867.41	0.233962
3866.93	0.261352
3866.45	0.231414
3865.96	0.184101
3865.48	0.160958
3865	0.173473
3864.52	0.205857
3864.03	0.23333
3863.55	0.231828
3863.07	0.210414
3862.59	0.204821
3862.11	0.221897
3861.62	0.2211
3861.14	0.175124
3860.66	0.129549
3860.18	0.130143
3859.69	0.161353
3859.21	0.177121
3858.73	0.172349
3858.25	0.178523
3857.76	0.197949
3857.28	0.199134
3856.8	0.179581
3856.32	0.178166
3855.84	0.206684
3855.35	0.226209
3854.87	0.208518
3854.39	0.18407
3853.91	0.190949
3853.42	0.194207
3852.94	0.151464
3852.46	0.112325
3851.98	0.123248
3851.5	0.154822
3851.01	0.158714
3850.53	0.151781
3850.05	0.164918
3849.57	0.189614
3849.08	0.203113
3848.6	0.209319
3848.12	0.221347
3847.64	0.219418
3847.15	0.181161
3846.67	0.136226
3846.19	0.133346
3845.71	0.167154
3845.23	0.185431
3844.74	0.165304
3844.26	0.146084
3843.78	0.156544
3843.3	0.171195
3842.81	0.161994
3842.33	0.149964
3841.85	0.162622
3841.37	0.183354
3840.89	0.180231
3840.4	0.161907
3839.92	0.162716
3839.44	0.186559
3838.96	0.211498
3838.47	0.224299
3837.99	0.232132
3837.51	0.234094
3837.03	0.217639
3836.54	0.191695
3836.06	0.178535
3835.58	0.180664
3835.1	0.186608
3834.62	0.191489
3834.13	0.196785
3833.65	0.197281
3833.17	0.190348
3832.69	0.187882
3832.2	0.202989
3831.72	0.223838
3831.24	0.224892
3830.76	0.206315
3830.27	0.196108
3829.79	0.203935
3829.31	0.20908
3828.83	0.201745
3828.35	0.198999
3827.86	0.222917
3827.38	0.26418
3826.9	0.287433
3826.42	0.270659
3825.93	0.228041
3825.45	0.19845
3824.97	0.197096
3824.49	0.202459
3824.01	0.190344
3823.52	0.170906
3823.04	0.176679
3822.56	0.213205
3822.08	0.247037
3821.59	0.234229
3821.11	0.197588
3820.63	0.203007
3820.15	0.244554
3819.66	0.263998
3819.18	0.242517
3818.7	0.212134
3818.22	0.190667
3817.74	0.177503
3817.25	0.179342
3816.77	0.203291
3816.29	0.229237
3815.81	0.219266
3815.32	0.191298
3814.84	0.200302
3814.36	0.235936
3813.88	0.241661
3813.4	0.206312
3812.91	0.176926
3812.43	0.180618
3811.95	0.192317
3811.47	0.176352
3810.98	0.146017
3810.5	0.135927
3810.02	0.156983
3809.54	0.194321
3809.05	0.229607
3808.57	0.25434
3808.09	0.255856
3807.61	0.227108
3807.13	0.197065
3806.64	0.203129
3806.16	0.236212
3805.68	0.245211
3805.2	0.217393
3804.71	0.184638
3804.23	0.16386
3803.75	0.155171
3803.27	0.159175
3802.78	0.176967
3802.3	0.196262
3801.82	0.1883
3801.34	0.151665
3800.86	0.1389
3800.37	0.178234
3799.89	0.227957
3799.41	0.230848
3798.93	0.203807
3798.44	0.194926
3797.96	0.216924
3797.48	0.236582
3797	0.22136
3796.52	0.190214
3796.03	0.176088
3795.55	0.181136
3795.07	0.186687
3794.59	0.198543
3794.1	0.231572
3793.62	0.260628
3793.14	0.238687
3792.66	0.186786
3792.17	0.167782
3791.69	0.194809
3791.21	0.209006
3790.73	0.167868
3790.25	0.121729
3789.76	0.131407
3789.28	0.176721
3788.8	0.187301
3788.32	0.158649
3787.83	0.153038
3787.35	0.189911
3786.87	0.213762
3786.39	0.187956
3785.91	0.149121
3785.42	0.149473
3784.94	0.186818
3784.46	0.220886
3783.98	0.235195
3783.49	0.232997
3783.01	0.209883
3782.53	0.171669
3782.05	0.150453
3781.56	0.168238
3781.08	0.204936
3780.6	0.217268
3780.12	0.186472
3779.64	0.149799
3779.15	0.153445
3778.67	0.192941
3778.19	0.228144
3777.71	0.225485
3777.22	0.193798
3776.74	0.16728
3776.26	0.161573
3775.78	0.167364
3775.29	0.174453
3774.81	0.186573
3774.33	0.203753
3773.85	0.210201
3773.37	0.200768
3772.88	0.196531
3772.4	0.20775
3771.92	0.210214
3771.44	0.190329
3770.95	0.180369
3770.47	0.21387
3769.99	0.256478
3769.51	0.237766
3769.03	0.179034
3768.54	0.158251
3768.06	0.185218
3767.58	0.199669
3767.1	0.178634
3766.61	0.160648
3766.13	0.173201
3765.65	0.185923
3765.17	0.174358
3764.68	0.166279
3764.2	0.18138
3763.72	0.189981
3763.24	0.175063
3762.76	0.166279
3762.27	0.186837
3761.79	0.206761
3761.31	0.1945
3760.83	0.169433
3760.34	0.1647
3759.86	0.176329
3759.38	0.177716
3758.9	0.174381
3758.42	0.182372
3757.93	0.189351
3757.45	0.183783
3756.97	0.187864
3756.49	0.219924
3756	0.252973
3755.52	0.250891
3755.04	0.224641
3754.56	0.198799
3754.07	0.17445
3753.59	0.154656
3753.11	0.16702
3752.63	0.230612
3752.15	0.278037
3751.66	0.223331
3751.18	0.145231
3750.7	0.131262
3750.22	0.169288
3749.73	0.186943
3749.25	0.165909
3748.77	0.167138
3748.29	0.201057
3747.8	0.21382
3747.32	0.201573
3746.84	0.200161
3746.36	0.215293
3745.88	0.218885
3745.39	0.204515
3744.91	0.20789
3744.43	0.243664
3743.95	0.242554
3743.46	0.191062
3742.98	0.160758
3742.5	0.167029
3742.02	0.18338
3741.54	0.198212
3741.05	0.217898
3740.57	0.230598
3740.09	0.213992
3739.61	0.184519
3739.12	0.179084
3738.64	0.194757
3738.16	0.194829
3737.68	0.172281
3737.19	0.167195
3736.71	0.192126
3736.23	0.19812
3735.75	0.168065
3735.27	0.16169
3734.78	0.217066
3734.3	0.25287
3733.82	0.215832
3733.34	0.159144
3732.85	0.157519
3732.37	0.21954
3731.89	0.262782
3731.41	0.241534
3730.93	0.192878
3730.44	0.16319
3729.96	0.168217
3729.48	0.197923
3729	0.224207
3728.51	0.21629
3728.03	0.188602
3727.55	0.190075
3727.07	0.232807
3726.58	0.255048
3726.1	0.196551
3725.62	0.120271
3725.14	0.102775
3724.66	0.137412
3724.17	0.168653
3723.69	0.17677
3723.21	0.190725
3722.73	0.214656
3722.24	0.211259
3721.76	0.179604
3721.28	0.172665
3720.8	0.202385
3720.31	0.218772
3719.83	0.186344
3719.35	0.145915
3718.87	0.147496
3718.39	0.18332
3717.9	0.204017
3717.42	0.190064
3716.94	0.171012
3716.46	0.17249
3715.97	0.188103
3715.49	0.193708
3715.01	0.180484
3714.53	0.164119
3714.05	0.161796
3713.56	0.172698
3713.08	0.181573
3712.6	0.179685
3712.12	0.177654
3711.63	0.180708
3711.15	0.171893
3710.67	0.152153
3710.19	0.154384
3709.7	0.193489
3709.22	0.231747
3708.74	0.213891
3708.26	0.166945
3707.78	0.158219
3707.29	0.191122
3706.81	0.21539
3706.33	0.199808
3705.85	0.175173
3705.36	0.176345
3704.88	0.193242
3704.4	0.197738
3703.92	0.1914
3703.44	0.192833
3702.95	0.205155
3702.47	0.216426
3701.99	0.221455
3701.51	0.220886
3701.02	0.209718
3700.54	0.19158
3700.06	0.181903
3699.58	0.18548
3699.09	0.193508
3698.61	0.200935
3698.13	0.212269
3697.65	0.222524
3697.17	0.21483
3696.68	0.1937
3696.2	0.187107
3695.72	0.200112
3695.24	0.206028
3694.75	0.18754
3694.27	0.169446
3693.79	0.174487
3693.31	0.1914
3692.82	0.198909
3692.34	0.197403
3691.86	0.196768
3691.38	0.192119
3690.9	0.181541
3690.41	0.182639
3689.93	0.197696
3689.45	0.204401
3688.97	0.195661
3688.48	0.206755
3688	0.247728
3687.52	0.255151
3687.04	0.193488
3686.56	0.140834
3686.07	0.159454
3685.59	0.220445
3685.11	0.25142
3684.63	0.23162
3684.14	0.210398
3683.66	0.215108
3683.18	0.219427
3682.7	0.202551
3682.21	0.183706
3681.73	0.179285
3681.25	0.174913
3680.77	0.157971
3680.29	0.145529
3679.8	0.16106
3679.32	0.198386
3678.84	0.226875
3678.36	0.228657
3677.87	0.203344
3677.39	0.166611
3676.91	0.14551
3676.43	0.153365
3675.95	0.171683
3675.46	0.154809
3674.98	0.114485
3674.5	0.114792
3674.02	0.162472
3673.53	0.205421
3673.05	0.210831
3672.57	0.204477
3672.09	0.2142
3671.6	0.233859
3671.12	0.231028
3670.64	0.200674
3670.16	0.17712
3669.68	0.187294
3669.19	0.21168
3668.71	0.205855
3668.23	0.168641
3667.75	0.143476
3667.26	0.165878
3666.78	0.211166
3666.3	0.221325
3665.82	0.184761
3665.33	0.148878
3664.85	0.154391
3664.37	0.186428
3663.89	0.203317
3663.41	0.19561
3662.92	0.183277
3662.44	0.173888
3661.96	0.165958
3661.48	0.173231
3660.99	0.203662
3660.51	0.226412
3660.03	0.210574
3659.55	0.187766
3659.07	0.202038
3658.58	0.237697
3658.1	0.23617
3657.62	0.197337
3657.14	0.177846
3656.65	0.197352
3656.17	0.208858
3655.69	0.185075
3655.21	0.174343
3654.72	0.201376
3654.24	0.219464
3653.76	0.197787
3653.28	0.171393
3652.8	0.171405
3652.31	0.184059
3651.83	0.186092
3651.35	0.190007
3650.87	0.208133
3650.38	0.201979
3649.9	0.146448
3649.42	0.109266
3648.94	0.151428
3648.46	0.22901
3647.97	0.243494
3647.49	0.201477
3647.01	0.175519
3646.53	0.179099
3646.04	0.172955
3645.56	0.157729
3645.08	0.166126
3644.6	0.197015
3644.11	0.21153
3643.63	0.193412
3643.15	0.176709
3642.67	0.185723
3642.19	0.202629
3641.7	0.197718
3641.22	0.176724
3640.74	0.17024
3640.26	0.187278
3639.77	0.207981
3639.29	0.207279
3638.81	0.183995
3638.33	0.165585
3637.84	0.1769
3637.36	0.204339
3636.88	0.209018
3636.4	0.189933
3635.92	0.187274
3635.43	0.217445
3634.95	0.23675
3634.47	0.206895
3633.99	0.164871
3633.5	0.169347
3633.02	0.213308
3632.54	0.230349
3632.06	0.205066
3631.58	0.183079
3631.09	0.187129
3630.61	0.193168
3630.13	0.184724
3629.65	0.187304
3629.16	0.220876
3628.68	0.235072
3628.2	0.191359
3627.72	0.154893
3627.23	0.176624
3626.75	0.222267
3626.27	0.231562
3625.79	0.199034
3625.31	0.167831
3624.82	0.170755
3624.34	0.195749
3623.86	0.203683
3623.38	0.177852
3622.89	0.14301
3622.41	0.138116
3621.93	0.173463
3621.45	0.209106
3620.97	0.200536
3620.48	0.164697
3620	0.156397
3619.52	0.186228
3619.04	0.197317
3618.55	0.164893
3618.07	0.147641
3617.59	0.183252
3617.11	0.223258
3616.62	0.210675
3616.14	0.177711
3615.66	0.181084
3615.18	0.209622
3614.7	0.208662
3614.21	0.179274
3613.73	0.180901
3613.25	0.228
3612.77	0.255194
3612.28	0.215846
3611.8	0.174528
3611.32	0.182366
3610.84	0.20767
3610.35	0.194743
3609.87	0.14849
3609.39	0.126759
3608.91	0.149428
3608.43	0.187811
3607.94	0.211481
3607.46	0.214094
3606.98	0.198979
3606.5	0.175157
3606.01	0.164678
3605.53	0.176422
3605.05	0.187243
3604.57	0.176705
3604.09	0.164858
3603.6	0.179911
3603.12	0.205204
3602.64	0.200839
3602.16	0.172916
3601.67	0.170806
3601.19	0.205023
3600.71	0.225856
3600.23	0.20029
3599.74	0.168602
3599.26	0.175193
3598.78	0.203708
3598.3	0.212247
3597.82	0.197853
3597.33	0.187386
3596.85	0.184024
3596.37	0.174926
3595.89	0.171254
3595.4	0.194832
3594.92	0.230589
3594.44	0.23468
3593.96	0.204049
3593.48	0.185448
3592.99	0.200279
3592.51	0.215522
3592.03	0.200521
3591.55	0.175419
3591.06	0.175034
3590.58	0.195768
3590.1	0.205251
3589.62	0.192735
3589.13	0.183017
3588.65	0.197367
3588.17	0.218648
3587.69	0.214419
3587.21	0.191028
3586.72	0.183511
3586.24	0.201335
3585.76	0.214583
3585.28	0.201988
3584.79	0.180976
3584.31	0.175668
3583.83	0.185227
3583.35	0.191287
3582.86	0.18964
3582.38	0.192588
3581.9	0.201301
3581.42	0.199471
3580.94	0.183218
3580.45	0.170768
3579.97	0.176958
3579.49	0.192831
3579.01	0.200153
3578.52	0.197714
3578.04	0.194096
3577.56	0.191941
3577.08	0.191561
3576.6	0.196848
3576.11	0.20534
3575.63	0.204053
3575.15	0.191118
3574.67	0.184646
3574.18	0.194095
3573.7	0.203345
3573.22	0.197173
3572.74	0.19189
3572.25	0.208144
3571.77	0.229644
3571.29	0.219706
3570.81	0.184743
3570.33	0.16769
3569.84	0.18524
3569.36	0.207259
3568.88	0.198349
3568.4	0.170062
3567.91	0.160356
3567.43	0.179478
3566.95	0.203089
3566.47	0.21176
3565.99	0.209249
3565.5	0.202529
3565.02	0.19302
3564.54	0.185877
3564.06	0.187759
3563.57	0.195439
3563.09	0.198597
3562.61	0.196246
3562.13	0.196613
3561.64	0.201945
3561.16	0.203547
3560.68	0.194856
3560.2	0.182536
3559.72	0.177336
3559.23	0.182259
3558.75	0.190437
3558.27	0.192245
3557.79	0.18604
3557.3	0.179498
3556.82	0.180577
3556.34	0.188164
3555.86	0.194478
3555.37	0.197027
3554.89	0.199627
3554.41	0.200864
3553.93	0.193319
3553.45	0.17975
3552.96	0.177343
3552.48	0.194647
3552	0.212057
3551.52	0.206289
3551.03	0.189033
3550.55	0.189435
3550.07	0.20832
3549.59	0.216027
3549.11	0.198202
3548.62	0.179311
3548.14	0.184281
3547.66	0.201529
3547.18	0.20384
3546.69	0.192077
3546.21	0.189787
3545.73	0.200794
3545.25	0.204776
3544.76	0.196633
3544.28	0.193595
3543.8	0.201641
3543.32	0.2024
3542.84	0.18791
3542.35	0.179246
3541.87	0.194764
3541.39	0.219605
3540.91	0.221511
3540.42	0.198295
3539.94	0.177287
3539.46	0.178486
3538.98	0.196115
3538.49	0.210012
3538.01	0.208185
3537.53	0.195765
3537.05	0.188126
3536.57	0.193443
3536.08	0.202391
3535.6	0.199388
3535.12	0.186144
3534.64	0.181479
3534.15	0.19185
3533.67	0.201342
3533.19	0.194806
3532.71	0.182321
3532.23	0.182197
3531.74	0.19365
3531.26	0.202698
3530.78	0.203187
3530.3	0.200612
3529.81	0.197164
3529.33	0.191739
3528.85	0.190578
3528.37	0.19953
3527.88	0.207954
3527.4	0.201254
3526.92	0.186142
3526.44	0.182522
3525.96	0.193024
3525.47	0.200336
3524.99	0.194637
3524.51	0.186418
3524.03	0.18684
3523.54	0.192106
3523.06	0.194864
3522.58	0.194638
3522.1	0.192871
3521.62	0.190501
3521.13	0.19306
3520.65	0.20459
3520.17	0.214534
3519.69	0.206472
3519.2	0.185698
3518.72	0.176201
3518.24	0.186086
3517.76	0.194915
3517.27	0.185891
3516.79	0.172373
3516.31	0.174523
3515.83	0.188307
3515.35	0.194939
3514.86	0.1908
3514.38	0.188559
3513.9	0.193178
3513.42	0.195897
3512.93	0.192432
3512.45	0.190383
3511.97	0.194584
3511.49	0.197649
3511	0.190922
3510.52	0.178646
3510.04	0.173401
3509.56	0.180446
3509.08	0.192306
3508.59	0.196972
3508.11	0.192207
3507.63	0.187738
3507.15	0.190572
3506.66	0.196706
3506.18	0.198331
3505.7	0.194779
3505.22	0.191428
3504.74	0.190709
3504.25	0.191721
3503.77	0.195005
3503.29	0.200112
3502.81	0.202208
3502.32	0.199525
3501.84	0.199047
3501.36	0.204427
3500.88	0.205701
3500.39	0.195261
3499.91	0.185157
3499.43	0.191266
3498.95	0.206317
3498.47	0.20896
3497.98	0.199577
3497.5	0.198724
3497.02	0.209005
3496.54	0.208426
3496.05	0.190516
3495.57	0.180604
3495.09	0.194378
3494.61	0.212368
3494.13	0.211707
3493.64	0.200348
3493.16	0.196004
3492.68	0.192998
3492.2	0.180073
3491.71	0.169215
3491.23	0.176894
3490.75	0.191592
3490.27	0.189621
3489.78	0.177159
3489.3	0.17794
3488.82	0.190546
3488.34	0.191223
3487.86	0.178051
3487.37	0.176374
3486.89	0.192716
3486.41	0.202969
3485.93	0.194708
3485.44	0.188066
3484.96	0.196706
3484.48	0.20283
3484	0.189234
3483.51	0.171182
3483.03	0.171953
3482.55	0.186248
3482.07	0.192654
3481.59	0.188098
3481.1	0.185542
3480.62	0.188361
3480.14	0.188935
3479.66	0.186076
3479.17	0.184035
3478.69	0.181977
3478.21	0.179942
3477.73	0.186409
3477.25	0.203709
3476.76	0.214683
3476.28	0.202613
3475.8	0.182255
3475.32	0.179702
3474.83	0.193511
3474.35	0.198857
3473.87	0.187109
3473.39	0.178751
3472.9	0.187204
3472.42	0.198386
3471.94	0.196009
3471.46	0.187605
3470.98	0.189089
3470.49	0.198241
3470.01	0.20069
3469.53	0.194849
3469.05	0.191713
3468.56	0.194826
3468.08	0.195861
3467.6	0.190346
3467.12	0.184795
3466.64	0.185394
3466.15	0.18988
3465.67	0.194028
3465.19	0.198402
3464.71	0.203448
3464.22	0.204121
3463.74	0.196316
3463.26	0.185779
3462.78	0.183012
3462.29	0.190445
3461.81	0.199904
3461.33	0.202707
3460.85	0.198829
3460.37	0.19258
3459.88	0.185645
3459.4	0.18051
3458.92	0.183925
3458.44	0.198182
3457.95	0.212746
3457.47	0.212275
3456.99	0.197371
3456.51	0.186557
3456.02	0.189958
3455.54	0.197491
3455.06	0.195994
3454.58	0.189242
3454.1	0.189449
3453.61	0.195779
3453.13	0.195833
3452.65	0.186856
3452.17	0.1802
3451.68	0.183118
3451.2	0.189156
3450.72	0.19032
3450.24	0.188956
3449.76	0.190174
3449.27	0.191878
3448.79	0.190126
3448.31	0.188372
3447.83	0.192093
3447.34	0.198142
3446.86	0.198008
3446.38	0.191745
3445.9	0.188219
3445.41	0.191805
3444.93	0.196201
3444.45	0.194414
3443.97	0.189098
3443.49	0.187709
3443	0.191793
3442.52	0.19533
3442.04	0.193356
3441.56	0.189114
3441.07	0.189849
3440.59	0.19699
3440.11	0.20359
3439.63	0.201951
3439.15	0.193709
3438.66	0.188437
3438.18	0.191719
3437.7	0.197547
3437.22	0.195271
3436.73	0.184658
3436.25	0.177148
3435.77	0.181786
3435.29	0.193843
3434.8	0.200788
3434.32	0.198316
3433.84	0.193251
3433.36	0.191635
3432.88	0.191371
3432.39	0.188479
3431.91	0.18476
3431.43	0.18473
3430.95	0.189258
3430.46	0.196287
3429.98	0.203577
3429.5	0.20748
3429.02	0.203734
3428.53	0.194207
3428.05	0.188811
3427.57	0.193612
3427.09	0.200968
3426.61	0.19996
3426.12	0.192677
3425.64	0.190597
3425.16	0.19669
3424.68	0.202614
3424.19	0.202995
3423.71	0.201416
3423.23	0.200275
3422.75	0.196704
3422.27	0.191875
3421.78	0.192379
3421.3	0.197546
3420.82	0.19724
3420.34	0.18854
3419.85	0.18341
3419.37	0.190094
3418.89	0.199217
3418.41	0.198445
3417.92	0.190676
3417.44	0.187567
3416.96	0.190753
3416.48	0.192266
3416	0.189545
3415.51	0.187471
3415.03	0.188447
3414.55	0.190366
3414.07	0.192938
3413.58	0.19675
3413.1	0.197932
3412.62	0.193087
3412.14	0.18723
3411.66	0.187245
3411.17	0.189976
3410.69	0.186685
3410.21	0.179249
3409.73	0.178587
3409.24	0.187331
3408.76	0.194306
3408.28	0.190212
3407.8	0.180762
3407.31	0.177636
3406.83	0.184603
3406.35	0.195712
3405.87	0.202599
3405.39	0.201251
3404.9	0.194798
3404.42	0.19082
3403.94	0.193152
3403.46	0.197053
3402.97	0.196362
3402.49	0.193286
3402.01	0.193912
3401.53	0.197123
3401.04	0.196479
3400.56	0.19166
3400.08	0.188304
3399.6	0.187861
3399.12	0.186761
3398.63	0.185424
3398.15	0.188222
3397.67	0.193542
3397.19	0.19437
3396.7	0.191523
3396.22	0.193966
3395.74	0.202633
3395.26	0.205878
3394.78	0.197974
3394.29	0.190208
3393.81	0.194041
3393.33	0.203425
3392.85	0.202981
3392.36	0.190609
3391.88	0.179999
3391.4	0.181796
3390.92	0.191587
3390.43	0.198063
3389.95	0.196656
3389.47	0.192206
3388.99	0.19051
3388.51	0.190683
3388.02	0.188719
3387.54	0.185759
3387.06	0.187223
3386.58	0.192905
3386.09	0.194458
3385.61	0.18777
3385.13	0.180324
3384.65	0.180306
3384.17	0.184944
3383.68	0.186173
3383.2	0.183353
3382.72	0.181589
3382.24	0.182113
3381.75	0.183077
3381.27	0.186107
3380.79	0.192189
3380.31	0.194753
3379.82	0.188273
3379.34	0.180056
3378.86	0.180556
3378.38	0.186927
3377.9	0.18774
3377.41	0.183053
3376.93	0.182646
3376.45	0.187244
3375.97	0.187006
3375.48	0.181094
3375	0.181337
3374.52	0.192082
3374.04	0.201446
3373.55	0.199631
3373.07	0.192509
3372.59	0.188505
3372.11	0.186643
3371.63	0.184224
3371.14	0.184649
3370.66	0.189331
3370.18	0.191785
3369.7	0.188279
3369.21	0.185082
3368.73	0.187633
3368.25	0.191626
3367.77	0.191913
3367.29	0.191414
3366.8	0.192704
3366.32	0.191085
3365.84	0.184982
3365.36	0.182685
3364.87	0.189093
3364.39	0.194778
3363.91	0.191196
3363.43	0.18711
3362.94	0.193645
3362.46	0.203317
3361.98	0.199949
3361.5	0.188275
3361.02	0.187899
3360.53	0.200853
3360.05	0.206399
3359.57	0.192867
3359.09	0.177886
3358.6	0.181207
3358.12	0.195992
3357.64	0.201594
3357.16	0.193906
3356.68	0.187196
3356.19	0.189297
3355.71	0.192842
3355.23	0.191027
3354.75	0.187275
3354.26	0.186115
3353.78	0.185761
3353.3	0.184513
3352.82	0.185596
3352.33	0.190398
3351.85	0.194347
3351.37	0.194409
3350.89	0.194687
3350.41	0.19828
3349.92	0.200149
3349.44	0.194799
3348.96	0.186188
3348.48	0.182373
3347.99	0.184002
3347.51	0.186419
3347.03	0.188683
3346.55	0.192247
3346.06	0.194615
3345.58	0.193386
3345.1	0.193374
3344.62	0.198926
3344.14	0.20268
3343.65	0.194843
3343.17	0.182387
3342.69	0.181962
3342.21	0.193878
3341.72	0.200472
3341.24	0.193658
3340.76	0.187821
3340.28	0.193875
3339.8	0.199992
3339.31	0.1927
3338.83	0.182827
3338.35	0.188014
3337.87	0.201933
3337.38	0.202783
3336.9	0.188333
3336.42	0.179326
3335.94	0.186439
3335.45	0.196844
3334.97	0.197422
3334.49	0.19269
3334.01	0.190894
3333.53	0.18949
3333.04	0.185571
3332.56	0.185632
3332.08	0.193505
3331.6	0.19975
3331.11	0.195749
3330.63	0.188237
3330.15	0.1877
3329.67	0.191319
3329.19	0.189407
3328.7	0.183002
3328.22	0.180762
3327.74	0.184092
3327.26	0.186408
3326.77	0.18606
3326.29	0.18802
3325.81	0.193012
3325.33	0.195496
3324.84	0.19274
3324.36	0.187534
3323.88	0.18194
3323.4	0.176331
3322.92	0.173535
3322.43	0.17626
3321.95	0.181303
3321.47	0.183731
3320.99	0.185591
3320.5	0.191051
3320.02	0.195693
3319.54	0.191552
3319.06	0.182075
3318.57	0.178175
3318.09	0.180683
3317.61	0.180479
3317.13	0.176719
3316.65	0.179782
3316.16	0.191667
3315.68	0.198427
3315.2	0.191439
3314.72	0.182972
3314.23	0.1855
3313.75	0.191813
3313.27	0.188395
3312.79	0.179508
3312.31	0.17963
3311.82	0.189238
3311.34	0.195255
3310.86	0.192762
3310.38	0.189794
3309.89	0.189708
3309.41	0.187122
3308.93	0.182851
3308.45	0.186201
3307.96	0.197363
3307.48	0.202979
3307	0.196265
3306.52	0.188438
3306.04	0.190445
3305.55	0.196069
3305.07	0.193405
3304.59	0.184915
3304.11	0.182706
3303.62	0.189219
3303.14	0.195163
3302.66	0.194619
3302.18	0.192182
3301.7	0.193072
3301.21	0.194783
3300.73	0.192211
3300.25	0.185516
3299.77	0.179828
3299.28	0.17879
3298.8	0.180766
3298.32	0.181601
3297.84	0.180153
3297.35	0.179877
3296.87	0.183472
3296.39	0.187973
3295.91	0.188397
3295.43	0.185464
3294.94	0.184749
3294.46	0.188846
3293.98	0.194618
3293.5	0.198173
3293.01	0.198923
3292.53	0.197457
3292.05	0.194354
3291.57	0.192012
3291.08	0.192599
3290.6	0.193815
3290.12	0.191341
3289.64	0.185076
3289.16	0.178409
3288.67	0.173039
3288.19	0.17014
3287.71	0.173653
3287.23	0.184817
3286.74	0.195405
3286.26	0.195647
3285.78	0.189085
3285.3	0.187191
3284.82	0.190877
3284.33	0.191177
3283.85	0.187617
3283.37	0.190305
3282.89	0.199915
3282.4	0.202275
3281.92	0.191383
3281.44	0.181824
3280.96	0.18628
3280.47	0.195928
3279.99	0.194567
3279.51	0.183024
3279.03	0.176226
3278.55	0.182109
3278.06	0.1954
3277.58	0.207794
3277.1	0.212513
3276.62	0.205128
3276.13	0.191023
3275.65	0.183271
3275.17	0.18585
3274.69	0.187542
3274.21	0.179746
3273.72	0.172319
3273.24	0.178431
3272.76	0.192795
3272.28	0.198293
3271.79	0.19195
3271.31	0.186924
3270.83	0.190141
3270.35	0.19419
3269.86	0.191662
3269.38	0.185696
3268.9	0.182909
3268.42	0.184475
3267.94	0.187602
3267.45	0.190139
3266.97	0.1916
3266.49	0.193371
3266.01	0.197261
3265.52	0.201366
3265.04	0.200466
3264.56	0.193717
3264.08	0.187296
3263.59	0.184916
3263.11	0.183209
3262.63	0.180664
3262.15	0.182351
3261.67	0.189509
3261.18	0.193237
3260.7	0.18815
3260.22	0.183163
3259.74	0.18771
3259.25	0.195865
3258.77	0.197183
3258.29	0.195782
3257.81	0.202273
3257.33	0.211818
3256.84	0.208062
3256.36	0.190626
3255.88	0.177668
3255.4	0.179912
3254.91	0.188118
3254.43	0.190115
3253.95	0.188273
3253.47	0.190533
3252.98	0.194777
3252.5	0.193388
3252.02	0.187047
3251.54	0.183558
3251.06	0.18466
3250.57	0.183923
3250.09	0.178796
3249.61	0.176398
3249.13	0.183047
3248.64	0.193322
3248.16	0.19571
3247.68	0.188432
3247.2	0.182447
3246.72	0.185543
3246.23	0.191982
3245.75	0.192536
3245.27	0.189076
3244.79	0.189581
3244.3	0.193264
3243.82	0.192244
3243.34	0.186942
3242.86	0.186518
3242.37	0.193184
3241.89	0.198315
3241.41	0.196511
3240.93	0.193116
3240.45	0.192016
3239.96	0.188948
3239.48	0.182541
3239	0.180128
3238.52	0.185517
3238.03	0.191453
3237.55	0.191029
3237.07	0.18802
3236.59	0.187691
3236.1	0.186924
3235.62	0.18234
3235.14	0.179451
3234.66	0.184046
3234.18	0.191646
3233.69	0.194286
3233.21	0.191336
3232.73	0.186781
3232.25	0.182672
3231.76	0.181331
3231.28	0.186181
3230.8	0.19393
3230.32	0.194551
3229.84	0.187737
3229.35	0.187161
3228.87	0.198482
3228.39	0.206507
3227.91	0.197018
3227.42	0.181146
3226.94	0.178975
3226.46	0.190359
3225.98	0.197772
3225.49	0.194493
3225.01	0.191224
3224.53	0.194366
3224.05	0.197186
3223.57	0.194925
3223.08	0.193427
3222.6	0.19718
3222.12	0.200488
3221.64	0.197099
3221.15	0.190224
3220.67	0.18703
3220.19	0.188863
3219.71	0.191069
3219.23	0.189688
3218.74	0.185988
3218.26	0.185201
3217.78	0.190297
3217.3	0.196532
3216.81	0.195061
3216.33	0.184779
3215.85	0.175581
3215.37	0.175941
3214.88	0.18328
3214.4	0.189802
3213.92	0.192898
3213.44	0.194044
3212.96	0.19279
3212.47	0.189249
3211.99	0.187733
3211.51	0.190649
3211.03	0.193288
3210.54	0.190925
3210.06	0.187337
3209.58	0.188859
3209.1	0.193681
3208.61	0.194541
3208.13	0.189611
3207.65	0.183904
3207.17	0.182099
3206.69	0.185845
3206.2	0.193743
3205.72	0.199464
3205.24	0.19526
3204.76	0.182324
3204.27	0.173145
3203.79	0.176955
3203.31	0.187977
3202.83	0.193714
3202.35	0.189468
3201.86	0.180835
3201.38	0.174803
3200.9	0.175438
3200.42	0.184734
3199.93	0.199121
3199.45	0.2091
3198.97	0.208959
3198.49	0.202572
3198	0.196504
3197.52	0.192713
3197.04	0.191089
3196.56	0.191979
3196.08	0.192013
3195.59	0.186223
3195.11	0.178533
3194.63	0.180484
3194.15	0.193705
3193.66	0.203232
3193.18	0.19876
3192.7	0.189363
3192.22	0.187229
3191.74	0.189237
3191.25	0.186366
3190.77	0.18185
3190.29	0.18507
3189.81	0.193747
3189.32	0.197422
3188.84	0.19493
3188.36	0.193947
3187.88	0.19717
3187.39	0.200561
3186.91	0.202007
3186.43	0.201176
3185.95	0.195365
3185.47	0.185879
3184.98	0.182325
3184.5	0.18958
3184.02	0.196822
3183.54	0.192974
3183.05	0.185585
3182.57	0.188175
3182.09	0.196452
3181.61	0.194784
3181.12	0.183228
3180.64	0.177676
3180.16	0.183478
3179.68	0.189465
3179.2	0.189372
3178.71	0.190179
3178.23	0.196129
3177.75	0.200557
3177.27	0.199725
3176.78	0.19843
3176.3	0.197041
3175.82	0.189472
3175.34	0.178827
3174.86	0.178194
3174.37	0.189246
3173.89	0.196302
3173.41	0.19026
3172.93	0.182798
3172.44	0.185957
3171.96	0.192746
3171.48	0.191661
3171	0.18779
3170.51	0.191657
3170.03	0.19873
3169.55	0.196697
3169.07	0.187549
3168.59	0.183866
3168.1	0.187556
3167.62	0.189345
3167.14	0.186986
3166.66	0.188098
3166.17	0.193605
3165.69	0.195262
3165.21	0.192126
3164.73	0.193647
3164.25	0.201148
3163.76	0.201802
3163.28	0.18963
3162.8	0.178499
3162.32	0.181816
3161.83	0.192145
3161.35	0.193562
3160.87	0.187503
3160.39	0.188721
3159.9	0.199501
3159.42	0.205221
3158.94	0.19798
3158.46	0.188356
3157.98	0.187039
3157.49	0.189558
3157.01	0.1872
3156.53	0.183234
3156.05	0.186566
3155.56	0.195324
3155.08	0.198507
3154.6	0.192516
3154.12	0.185424
3153.63	0.184197
3153.15	0.186311
3152.67	0.186993
3152.19	0.18727
3151.71	0.189954
3151.22	0.192867
3150.74	0.191937
3150.26	0.188735
3149.78	0.188922
3149.29	0.19289
3148.81	0.194035
3148.33	0.188713
3147.85	0.183628
3147.37	0.18735
3146.88	0.196913
3146.4	0.200312
3145.92	0.192569
3145.44	0.182923
3144.95	0.181298
3144.47	0.185546
3143.99	0.188282
3143.51	0.189141
3143.02	0.191739
3142.54	0.193502
3142.06	0.189348
3141.58	0.183305
3141.1	0.184342
3140.61	0.191778
3140.13	0.196309
3139.65	0.194958
3139.17	0.193851
3138.68	0.194538
3138.2	0.190956
3137.72	0.183504
3137.24	0.182011
3136.75	0.189444
3136.27	0.195383
3135.79	0.192926
3135.31	0.189603
3134.83	0.193106
3134.34	0.19847
3133.86	0.199209
3133.38	0.19843
3132.9	0.198545
3132.41	0.192646
3131.93	0.179411
3131.45	0.17305
3130.97	0.18385
3130.49	0.198568
3130	0.197146
3129.52	0.184168
3129.04	0.180497
3128.56	0.189628
3128.07	0.194679
3127.59	0.187749
3127.11	0.181805
3126.63	0.187407
3126.14	0.196103
3125.66	0.195854
3125.18	0.189009
3124.7	0.185192
3124.22	0.18623
3123.73	0.187634
3123.25	0.187651
3122.77	0.187461
3122.29	0.186904
3121.8	0.185488
3121.32	0.184371
3120.84	0.184212
3120.36	0.18464
3119.88	0.187099
3119.39	0.193275
3118.91	0.199441
3118.43	0.198505
3117.95	0.189992
3117.46	0.18211
3116.98	0.182233
3116.5	0.189328
3116.02	0.196764
3115.53	0.198744
3115.05	0.194131
3114.57	0.187171
3114.09	0.184353
3113.61	0.188083
3113.12	0.193178
3112.64	0.193274
3112.16	0.189206
3111.68	0.186573
3111.19	0.187533
3110.71	0.189575
3110.23	0.191181
3109.75	0.19297
3109.26	0.194092
3108.78	0.19279
3108.3	0.189995
3107.82	0.188062
3107.34	0.187066
3106.85	0.186149
3106.37	0.186741
3105.89	0.190164
3105.41	0.193794
3104.92	0.194074
3104.44	0.191285
3103.96	0.187333
3103.48	0.182729
3103	0.17954
3102.51	0.182367
3102.03	0.191408
3101.55	0.19887
3101.07	0.198611
3100.58	0.195482
3100.1	0.196415
3099.62	0.198296
3099.14	0.194251
3098.65	0.187245
3098.17	0.186115
3097.69	0.190741
3097.21	0.192656
3096.73	0.189585
3096.24	0.188291
3095.76	0.191431
3095.28	0.192596
3094.8	0.187595
3094.31	0.181934
3093.83	0.182002
3093.35	0.186425
3092.87	0.190086
3092.39	0.190972
3091.9	0.189992
3091.42	0.188073
3090.94	0.18685
3090.46	0.18879
3089.97	0.193524
3089.49	0.196848
3089.01	0.1954
3088.53	0.190683
3088.04	0.187508
3087.56	0.189058
3087.08	0.194316
3086.6	0.198974
3086.12	0.199264
3085.63	0.196008
3085.15	0.193084
3084.67	0.192161
3084.19	0.191776
3083.7	0.19152
3083.22	0.192654
3082.74	0.193866
3082.26	0.19204
3081.77	0.188671
3081.29	0.188433
3080.81	0.189755
3080.33	0.185557
3079.85	0.177413
3079.36	0.177914
3078.88	0.192057
3078.4	0.204844
3077.92	0.20015
3077.43	0.185251
3076.95	0.180226
3076.47	0.189517
3075.99	0.198314
3075.51	0.196036
3075.02	0.189301
3074.54	0.187969
3074.06	0.190926
3073.58	0.192314
3073.09	0.192158
3072.61	0.193937
3072.13	0.196798
3071.65	0.197056
3071.16	0.194419
3070.68	0.191926
3070.2	0.191136
3069.72	0.190918
3069.24	0.190516
3068.75	0.190878
3068.27	0.192499
3067.79	0.193867
3067.31	0.193415
3066.82	0.192377
3066.34	0.193535
3065.86	0.196423
3065.38	0.196744
3064.9	0.192831
3064.41	0.18957
3063.93	0.191296
3063.45	0.194587
3062.97	0.19385
3062.48	0.190922
3062	0.191161
3061.52	0.192737
3061.04	0.189846
3060.55	0.185075
3060.07	0.186736
3059.59	0.193419
3059.11	0.194316
3058.63	0.187944
3058.14	0.18623
3057.66	0.194567
3057.18	0.202022
3056.7	0.199127
3056.21	0.19278
3055.73	0.192368
3055.25	0.193895
3054.77	0.189728
3054.28	0.183877
3053.8	0.184101
3053.32	0.18749
3052.84	0.186673
3052.36	0.183928
3051.87	0.186188
3051.39	0.191985
3050.91	0.195154
3050.43	0.195809
3049.94	0.196391
3049.46	0.193189
3048.98	0.184362
3048.5	0.17922
3048.02	0.185563
3047.53	0.194622
3047.05	0.193619
3046.57	0.187054
3046.09	0.188412
3045.6	0.195697
3045.12	0.195062
3044.64	0.186708
3044.16	0.185722
3043.67	0.195401
3043.19	0.200818
3042.71	0.194418
3042.23	0.188153
3041.75	0.191878
3041.26	0.197481
3040.78	0.194438
3040.3	0.187966
3039.82	0.187585
3039.33	0.190758
3038.85	0.189942
3038.37	0.186898
3037.89	0.187689
3037.41	0.189847
3036.92	0.187008
3036.44	0.181871
3035.96	0.182904
3035.48	0.190593
3034.99	0.197456
3034.51	0.199596
3034.03	0.199834
3033.55	0.199484
3033.06	0.19608
3032.58	0.1904
3032.1	0.187832
3031.62	0.190556
3031.14	0.194404
3030.65	0.195426
3030.17	0.194811
3029.69	0.194611
3029.21	0.193441
3028.72	0.189932
3028.24	0.186985
3027.76	0.188395
3027.28	0.193581
3026.79	0.198512
3026.31	0.200477
3025.83	0.199565
3025.35	0.196362
3024.87	0.192125
3024.38	0.190542
3023.9	0.194284
3023.42	0.199376
3022.94	0.198384
3022.45	0.191686
3021.97	0.189338
3021.49	0.196962
3021.01	0.205552
3020.53	0.202856
3020.04	0.191828
3019.56	0.186631
3019.08	0.192638
3018.6	0.200219
3018.11	0.199809
3017.63	0.194853
3017.15	0.193796
3016.67	0.197436
3016.18	0.200439
3015.7	0.20003
3015.22	0.197476
3014.74	0.194324
3014.26	0.192317
3013.77	0.193852
3013.29	0.198222
3012.81	0.200706
3012.33	0.199308
3011.84	0.197735
3011.36	0.198157
3010.88	0.196852
3010.4	0.191641
3009.92	0.188033
3009.43	0.191375
3008.95	0.197298
3008.47	0.197953
3007.99	0.194196
3007.5	0.193369
3007.02	0.197276
3006.54	0.200046
3006.06	0.198111
3005.57	0.195136
3005.09	0.19574
3004.61	0.199556
3004.13	0.202756
3003.65	0.202345
3003.16	0.198562
3002.68	0.194851
3002.2	0.194634
3001.72	0.196977
3001.23	0.197583
3000.75	0.195583
3000.27	0.195305
2999.79	0.198762
2999.3	0.201313
2998.82	0.198868
2998.34	0.194889
2997.86	0.194357
2997.38	0.196214
2996.89	0.197522
2996.41	0.199899
2995.93	0.204827
2995.45	0.207164
2994.96	0.202427
2994.48	0.196672
2994	0.198948
2993.52	0.206266
2993.04	0.206894
2992.55	0.19922
2992.07	0.194976
2991.59	0.201391
2991.11	0.211189
2990.62	0.213778
2990.14	0.209462
2989.66	0.206087
2989.18	0.20706
2988.69	0.209553
2988.21	0.210613
2987.73	0.210044
2987.25	0.209368
2986.77	0.210948
2986.28	0.216074
2985.8	0.222086
2985.32	0.224101
2984.84	0.22143
2984.35	0.219286
2983.87	0.222432
2983.39	0.229953
2982.91	0.237327
2982.43	0.240958
2981.94	0.240173
2981.46	0.237717
2980.98	0.238397
2980.5	0.244008
2980.01	0.250068
2979.53	0.252087
2979.05	0.253612
2978.57	0.261062
2978.08	0.271698
2977.6	0.275488
2977.12	0.271101
2976.64	0.269155
2976.16	0.275899
2975.67	0.284257
2975.19	0.286445
2974.71	0.28626
2974.23	0.290075
2973.74	0.294993
2973.26	0.295697
2972.78	0.295983
2972.3	0.301823
2971.81	0.308602
2971.33	0.308017
2970.85	0.304183
2970.37	0.308236
2969.89	0.319779
2969.4	0.326811
2968.92	0.325397
2968.44	0.325245
2967.96	0.331183
2967.47	0.33492
2966.99	0.331799
2966.51	0.331418
2966.03	0.34157
2965.55	0.352861
2965.06	0.351456
2964.58	0.341141
2964.1	0.337757
2963.62	0.34594
2963.13	0.354906
2962.65	0.355974
2962.17	0.353482
2961.69	0.354914
2961.2	0.359071
2960.72	0.359866
2960.24	0.355862
2959.76	0.350666
2959.28	0.346593
2958.79	0.342938
2958.31	0.339718
2957.83	0.33875
2957.35	0.339815
2956.86	0.338818
2956.38	0.332848
2955.9	0.325593
2955.42	0.32355
2954.94	0.326313
2954.45	0.32558
2953.97	0.317611
2953.49	0.310505
2953.01	0.312295
2952.52	0.317141
2952.04	0.31295
2951.56	0.301879
2951.08	0.298592
2950.59	0.306838
2950.11	0.311579
2949.63	0.301837
2949.15	0.288139
2948.67	0.285061
2948.18	0.289703
2947.7	0.289095
2947.22	0.282721
2946.74	0.280624
2946.25	0.283753
2945.77	0.283639
2945.29	0.280199
2944.81	0.283146
2944.32	0.293174
2943.84	0.297504
2943.36	0.29019
2942.88	0.282229
2942.4	0.283232
2941.91	0.28721
2941.43	0.284344
2940.95	0.277664
2940.47	0.276456
2939.98	0.280645
2939.5	0.282632
2939.02	0.279899
2938.54	0.276879
2938.06	0.27616
2937.57	0.275985
2937.09	0.275161
2936.61	0.274466
2936.13	0.274062
2935.64	0.273643
2935.16	0.273948
2934.68	0.275406
2934.2	0.277044
2933.71	0.278125
2933.23	0.278029
2932.75	0.274501
2932.27	0.267037
2931.79	0.261597
2931.3	0.264545
2930.82	0.271254
2930.34	0.270067
2929.86	0.260645
2929.37	0.256169
2928.89	0.262684
2928.41	0.268924
2927.93	0.263631
2927.45	0.253418
2926.96	0.250498
2926.48	0.252914
2926	0.250899
2925.52	0.2455
2925.03	0.246256
2924.55	0.252967
2924.07	0.25479
2923.59	0.247904
2923.1	0.241242
2922.62	0.241753
2922.14	0.245435
2921.66	0.245685
2921.18	0.242298
2920.69	0.238577
2920.21	0.236036
2919.73	0.235336
2919.25	0.237168
2918.76	0.239929
2918.28	0.240571
2917.8	0.238828
2917.32	0.237213
2916.83	0.23723
2916.35	0.239376
2915.87	0.244841
2915.39	0.252162
2914.91	0.255104
2914.42	0.250663
2913.94	0.245603
2913.46	0.247263
2912.98	0.251443
2912.49	0.248123
2912.01	0.238118
2911.53	0.233224
2911.05	0.239183
2910.57	0.24776
2910.08	0.249058
2909.6	0.244733
2909.12	0.242558
2908.64	0.244175
2908.15	0.245187
2907.67	0.243778
2907.19	0.242532
2906.71	0.242627
2906.22	0.242049
2905.74	0.240368
2905.26	0.24093
2904.78	0.245993
2904.3	0.251868
2903.81	0.252341
2903.33	0.246633
2902.85	0.241243
2902.37	0.241997
2901.88	0.246298
2901.4	0.246771
2900.92	0.241364
2900.44	0.235815
2899.96	0.235287
2899.47	0.238883
2898.99	0.243595
2898.51	0.248053
2898.03	0.250169
2897.54	0.246646
2897.06	0.239206
2896.58	0.236205
2896.1	0.242252
2895.61	0.250454
2895.13	0.251358
2894.65	0.246603
2894.17	0.245472
2893.69	0.25004
2893.2	0.253237
2892.72	0.251174
2892.24	0.248277
2891.76	0.248307
2891.27	0.248723
2890.79	0.247298
2890.31	0.24688
2889.83	0.248623
2889.34	0.247195
2888.86	0.239126
2888.38	0.230974
2887.9	0.231804
2887.42	0.240659
2886.93	0.247191
2886.45	0.2456
2885.97	0.241442
2885.49	0.24194
2885	0.245957
2884.52	0.247334
2884.04	0.244975
2883.56	0.243703
2883.08	0.245946
2882.59	0.248228
2882.11	0.247511
2881.63	0.246544
2881.15	0.249469
2880.66	0.255003
2880.18	0.258144
2879.7	0.25747
2879.22	0.256649
2878.73	0.258876
2878.25	0.263779
2877.77	0.269492
2877.29	0.273871
2876.81	0.274146
2876.32	0.269755
2875.84	0.265235
2875.36	0.265383
2874.88	0.267653
2874.39	0.265299
2873.91	0.258891
2873.43	0.256574
2872.95	0.260953
2872.47	0.263852
2871.98	0.258396
2871.5	0.249553
2871.02	0.245664
2870.54	0.246526
2870.05	0.246286
2869.57	0.243364
2869.09	0.239889
2868.61	0.235369
2868.12	0.228771
2867.64	0.22367
2867.16	0.223495
2866.68	0.224944
2866.2	0.222883
2865.71	0.219271
2865.23	0.219731
2864.75	0.223053
2864.27	0.222733
2863.78	0.218124
2863.3	0.215303
2862.82	0.216298
2862.34	0.216659
2861.85	0.214658
2861.37	0.214146
2860.89	0.215727
2860.41	0.214019
2859.93	0.207515
2859.44	0.203167
2858.96	0.205836
2858.48	0.210856
2858	0.211586
2857.51	0.209089
2857.03	0.208048
2856.55	0.208152
2856.07	0.206687
2855.59	0.205483
2855.1	0.207941
2854.62	0.211696
2854.14	0.21107
2853.66	0.20621
2853.17	0.203472
2852.69	0.206359
2852.21	0.211374
2851.73	0.213417
2851.24	0.211521
2850.76	0.20818
2850.28	0.205848
2849.8	0.204885
2849.32	0.20352
2848.83	0.200206
2848.35	0.196812
2847.87	0.197085
2847.39	0.20082
2846.9	0.202861
2846.42	0.200407
2845.94	0.197676
2845.46	0.199295
2844.98	0.203334
2844.49	0.204701
2844.01	0.202689
2843.53	0.20048
2843.05	0.199408
2842.56	0.198676
2842.08	0.198617
2841.6	0.199837
2841.12	0.200956
2840.63	0.201048
2840.15	0.201915
2839.67	0.203929
2839.19	0.20324
2838.71	0.198437
2838.22	0.195378
2837.74	0.198404
2837.26	0.2013
2836.78	0.19622
2836.29	0.188792
2835.81	0.19147
2835.33	0.203442
2834.85	0.210051
2834.36	0.204463
2833.88	0.197043
2833.4	0.197183
2832.92	0.199851
2832.44	0.197703
2831.95	0.195071
2831.47	0.198966
2830.99	0.204938
2830.51	0.203942
2830.02	0.197531
2829.54	0.194592
2829.06	0.196916
2828.58	0.198962
2828.1	0.198767
2827.61	0.199029
2827.13	0.198986
2826.65	0.195313
2826.17	0.190262
2825.68	0.189682
2825.2	0.1934
2824.72	0.1961
2824.24	0.197066
2823.75	0.19998
2823.27	0.203385
2822.79	0.201212
2822.31	0.193973
2821.83	0.189889
2821.34	0.192447
2820.86	0.195615
2820.38	0.19434
2819.9	0.19167
2819.41	0.191894
2818.93	0.193775
2818.45	0.194625
2817.97	0.194946
2817.49	0.195404
2817	0.194732
2816.52	0.193681
2816.04	0.195394
2815.56	0.199085
2815.07	0.199234
2814.59	0.194356
2814.11	0.190174
2813.63	0.190207
2813.14	0.190269
2812.66	0.186861
2812.18	0.184579
2811.7	0.188723
2811.22	0.195543
2810.73	0.196963
2810.25	0.19232
2809.77	0.188556
2809.29	0.189878
2808.8	0.193377
2808.32	0.194276
2807.84	0.191568
2807.36	0.188111
2806.87	0.187572
2806.39	0.191015
2805.91	0.194818
2805.43	0.193803
2804.95	0.188053
2804.46	0.183944
2803.98	0.186205
2803.5	0.191996
2803.02	0.195296
2802.53	0.194265
2802.05	0.191539
2801.57	0.189504
2801.09	0.188975
2800.61	0.190641
2800.12	0.193878
2799.64	0.195358
2799.16	0.19254
2798.68	0.187875
2798.19	0.186137
2797.71	0.188302
2797.23	0.190889
2796.75	0.191008
2796.26	0.189658
2795.78	0.189239
2795.3	0.18999
2794.82	0.190279
2794.34	0.189583
2793.85	0.189742
2793.37	0.192413
2792.89	0.195724
2792.41	0.195445
2791.92	0.190887
2791.44	0.187209
2790.96	0.189205
2790.48	0.194506
2790	0.196391
2789.51	0.192934
2789.03	0.189186
2788.55	0.189308
2788.07	0.191138
2787.58	0.190588
2787.1	0.187958
2786.62	0.186868
2786.14	0.188547
2785.65	0.190304
2785.17	0.189235
2784.69	0.186045
2784.21	0.18473
2783.73	0.188186
2783.24	0.194117
2782.76	0.196527
2782.28	0.192745
2781.8	0.187149
2781.31	0.185806
2780.83	0.188925
2780.35	0.191554
2779.87	0.19059
2779.38	0.187793
2778.9	0.186524
2778.42	0.188121
2777.94	0.191317
2777.46	0.193127
2776.97	0.191333
2776.49	0.187899
2776.01	0.187503
2775.53	0.190503
2775.04	0.191029
2774.56	0.186232
2774.08	0.182527
2773.6	0.18676
2773.12	0.19472
2772.63	0.196481
2772.15	0.191673
2771.67	0.189315
2771.19	0.193533
2770.7	0.198647
2770.22	0.1993
2769.74	0.196697
2769.26	0.192891
2768.77	0.187746
2768.29	0.183982
2767.81	0.186394
2767.33	0.192875
2766.85	0.194496
2766.36	0.189204
2765.88	0.18617
2765.4	0.191178
2764.92	0.196842
2764.43	0.194556
2763.95	0.188247
2763.47	0.186716
2762.99	0.18928
2762.51	0.189032
2762.02	0.18619
2761.54	0.186945
2761.06	0.191275
2760.58	0.192425
2760.09	0.189083
2759.61	0.187954
2759.13	0.192043
2758.65	0.195118
2758.16	0.191647
2757.68	0.18533
2757.2	0.182834
2756.72	0.184402
2756.24	0.185477
2755.75	0.184743
2755.27	0.185277
2754.79	0.188692
2754.31	0.192564
2753.82	0.194057
2753.34	0.192954
2752.86	0.190519
2752.38	0.187854
2751.89	0.186259
2751.41	0.187015
2750.93	0.189291
2750.45	0.190159
2749.97	0.188698
2749.48	0.187937
2749	0.190151
2748.52	0.192191
2748.04	0.189675
2747.55	0.184843
2747.07	0.184554
2746.59	0.189828
2746.11	0.193473
2745.63	0.190871
2745.14	0.186839
2744.66	0.187352
2744.18	0.190095
2743.7	0.189465
2743.21	0.186507
2742.73	0.186359
2742.25	0.188771
2741.77	0.189138
2741.28	0.187533
2740.8	0.188375
2740.32	0.191426
2739.84	0.191364
2739.36	0.187489
2738.87	0.185938
2738.39	0.189656
2737.91	0.193723
2737.43	0.193476
2736.94	0.191151
2736.46	0.190546
2735.98	0.19052
2735.5	0.188434
2735.02	0.185768
2734.53	0.185748
2734.05	0.188264
2733.57	0.190842
2733.09	0.192454
2732.6	0.193513
2732.12	0.19388
2731.64	0.193184
2731.16	0.191581
2730.67	0.188995
2730.19	0.185744
2729.71	0.18437
2729.23	0.187454
2728.75	0.192731
2728.26	0.194398
2727.78	0.190953
2727.3	0.187607
2726.82	0.188586
2726.33	0.191339
2725.85	0.191318
2725.37	0.188999
2724.89	0.188235
2724.4	0.189695
2723.92	0.190195
2723.44	0.187981
2722.96	0.185317
2722.48	0.185324
2721.99	0.18807
2721.51	0.190534
2721.03	0.190074
2720.55	0.187576
2720.06	0.186375
2719.58	0.187749
2719.1	0.189137
2718.62	0.188185
2718.14	0.186627
2717.65	0.187594
2717.17	0.190524
2716.69	0.192039
2716.21	0.191081
2715.72	0.189756
2715.24	0.189441
2714.76	0.189439
2714.28	0.189316
2713.79	0.189225
2713.31	0.18824
2712.83	0.185733
2712.35	0.18391
2711.87	0.185167
2711.38	0.187551
2710.9	0.186975
2710.42	0.183901
2709.94	0.18301
2709.45	0.185668
2708.97	0.187849
2708.49	0.186655
2708.01	0.184402
2707.52	0.184038
2707.04	0.184798
2706.56	0.184854
2706.08	0.184824
2705.6	0.186011
2705.11	0.187731
2704.63	0.188614
2704.15	0.188663
2703.67	0.188415
2703.18	0.187896
2702.7	0.187564
2702.22	0.188178
2701.74	0.188838
2701.26	0.187679
2700.77	0.185481
2700.29	0.185807
2699.81	0.189957
2699.33	0.194076
2698.84	0.193302
2698.36	0.187796
2697.88	0.182593
2697.4	0.182027
2696.91	0.185639
2696.43	0.188919
2695.95	0.188263
2695.47	0.185171
2694.99	0.184047
2694.5	0.18601
2694.02	0.187326
2693.54	0.185461
2693.06	0.183478
2692.57	0.185288
2692.09	0.18936
2691.61	0.191071
2691.13	0.189583
2690.65	0.188038
2690.16	0.18792
2689.68	0.1879
2689.2	0.187567
2688.72	0.187785
2688.23	0.187803
2687.75	0.186388
2687.27	0.185446
2686.79	0.187844
2686.3	0.191694
2685.82	0.191796
2685.34	0.187476
2684.86	0.183965
2684.38	0.18473
2683.89	0.187227
2683.41	0.18808
2682.93	0.188004
2682.45	0.189158
2681.96	0.19091
2681.48	0.191063
2681	0.189211
2680.52	0.186944
2680.03	0.18612
2679.55	0.187662
2679.07	0.190578
2678.59	0.192018
2678.11	0.190317
2677.62	0.187687
2677.14	0.187373
2676.66	0.188689
2676.18	0.188095
2675.69	0.185178
2675.21	0.18359
2674.73	0.185533
2674.25	0.188845
2673.77	0.190578
2673.28	0.190307
2672.8	0.188746
2672.32	0.186286
2671.84	0.184282
2671.35	0.184805
2670.87	0.187523
2670.39	0.189384
2669.91	0.188903
2669.42	0.18825
2668.94	0.18966
2668.46	0.191965
2667.98	0.192549
2667.5	0.191103
2667.01	0.189566
2666.53	0.189473
2666.05	0.190523
2665.57	0.191144
2665.08	0.189872
2664.6	0.186885
2664.12	0.18431
2663.64	0.18413
2663.16	0.185968
2662.67	0.18802
2662.19	0.189707
2661.71	0.191491
2661.23	0.192376
2660.74	0.190195
2660.26	0.185177
2659.78	0.180922
2659.3	0.180633
2658.81	0.183649
2658.33	0.186502
2657.85	0.186881
2657.37	0.185692
2656.89	0.185281
2656.4	0.18649
2655.92	0.188159
2655.44	0.189268
2654.96	0.190279
2654.47	0.19154
2653.99	0.191588
2653.51	0.188904
2653.03	0.184794
2652.54	0.182312
2652.06	0.182473
2651.58	0.183832
2651.1	0.185423
2650.62	0.187456
2650.13	0.189294
2649.65	0.189705
2649.17	0.189234
2648.69	0.189332
2648.2	0.189267
2647.72	0.18753
2647.24	0.185979
2646.76	0.187874
2646.28	0.191554
2645.79	0.191672
2645.31	0.187819
2644.83	0.185775
2644.35	0.188154
2643.86	0.190198
2643.38	0.188228
2642.9	0.185734
2642.42	0.186594
2641.93	0.188323
2641.45	0.187403
2640.97	0.185976
2640.49	0.187188
2640.01	0.188748
2639.52	0.187547
2639.04	0.186405
2638.56	0.189129
2638.08	0.192499
2637.59	0.190781
2637.11	0.185612
2636.63	0.183547
2636.15	0.185762
2635.67	0.187596
2635.18	0.187186
2634.7	0.187009
2634.22	0.187404
2633.74	0.185969
2633.25	0.183594
2632.77	0.184019
2632.29	0.186948
2631.81	0.187858
2631.32	0.1858
2630.84	0.184944
2630.36	0.187018
2629.88	0.188668
2629.4	0.187951
2628.91	0.187603
2628.43	0.189358
2627.95	0.19041
2627.47	0.188536
2626.98	0.186241
2626.5	0.186566
2626.02	0.188293
2625.54	0.188289
2625.05	0.186286
2624.57	0.184658
2624.09	0.185049
2623.61	0.186961
2623.13	0.188646
2622.64	0.188803
2622.16	0.18804
2621.68	0.188273
2621.2	0.189661
2620.71	0.18956
2620.23	0.186692
2619.75	0.184181
2619.27	0.185331
2618.79	0.188275
2618.3	0.188688
2617.82	0.186295
2617.34	0.184274
2616.86	0.183609
2616.37	0.182907
2615.89	0.182823
2615.41	0.185218
2614.93	0.188292
2614.44	0.188214
2613.96	0.185776
2613.48	0.185498
2613	0.18767
2612.52	0.187548
2612.03	0.184089
2611.55	0.182786
2611.07	0.186851
2610.59	0.191485
2610.1	0.190695
2609.62	0.185715
2609.14	0.18212
2608.66	0.182196
2608.18	0.184154
2607.69	0.185844
2607.21	0.18615
2606.73	0.184816
2606.25	0.183344
2605.76	0.183984
2605.28	0.186063
2604.8	0.186282
2604.32	0.184122
2603.83	0.183116
2603.35	0.18478
2602.87	0.185843
2602.39	0.18452
2601.91	0.184466
2601.42	0.188161
2600.94	0.191201
2600.46	0.188902
2599.98	0.184515
2599.49	0.184349
2599.01	0.187311
2598.53	0.1871
2598.05	0.183312
2597.56	0.182287
2597.08	0.186267
2596.6	0.189569
2596.12	0.187759
2595.64	0.184142
2595.15	0.183758
2594.67	0.186125
2594.19	0.187821
2593.71	0.188054
2593.22	0.188059
2592.74	0.187953
2592.26	0.18752
2591.78	0.187629
2591.3	0.188219
2590.81	0.187497
2590.33	0.185374
2589.85	0.184638
2589.37	0.186263
2588.88	0.18726
2588.4	0.18597
2587.92	0.185445
2587.44	0.187808
2586.95	0.189567
2586.47	0.187455
2585.99	0.184955
2585.51	0.1868
2585.03	0.190104
2584.54	0.188448
2584.06	0.182954
2583.58	0.181209
2583.1	0.185351
2582.61	0.189193
2582.13	0.188295
2581.65	0.185576
2581.17	0.184539
2580.69	0.184156
2580.2	0.183431
2579.72	0.184575
2579.24	0.187811
2578.76	0.188739
2578.27	0.18523
2577.79	0.181907
2577.31	0.183085
2576.83	0.186328
2576.34	0.187359
2575.86	0.187143
2575.38	0.18864
2574.9	0.190338
2574.42	0.189134
2573.93	0.186853
2573.45	0.187471
2572.97	0.189876
2572.49	0.189414
2572	0.185735
2571.52	0.18334
2571.04	0.184365
2570.56	0.186108
2570.07	0.18604
2569.59	0.185133
2569.11	0.185206
2568.63	0.186168
2568.15	0.186895
2567.66	0.186642
2567.18	0.185395
2566.7	0.184424
2566.22	0.185688
2565.73	0.188984
2565.25	0.190908
2564.77	0.188975
2564.29	0.185408
2563.81	0.184028
2563.32	0.185179
2562.84	0.186288
2562.36	0.186203
2561.88	0.186144
2561.39	0.187237
2560.91	0.189464
2560.43	0.191983
2559.95	0.192752
2559.46	0.189684
2558.98	0.184321
2558.5	0.181688
2558.02	0.183999
2557.54	0.187279
2557.05	0.18696
2556.57	0.184359
2556.09	0.183556
2555.61	0.184836
2555.12	0.185536
2554.64	0.185259
2554.16	0.185658
2553.68	0.18636
2553.2	0.185501
2552.71	0.18342
2552.23	0.18209
2551.75	0.181914
2551.27	0.182408
2550.78	0.184379
2550.3	0.18788
2549.82	0.189833
2549.34	0.187754
2548.85	0.184272
2548.37	0.183568
2547.89	0.185412
2547.41	0.186644
2546.93	0.186634
2546.44	0.186958
2545.96	0.187264
2545.48	0.186119
2545	0.18448
2544.51	0.183984
2544.03	0.183617
2543.55	0.182292
2543.07	0.182321
2542.58	0.185489
2542.1	0.188314
2541.62	0.186691
2541.14	0.182986
2540.66	0.182319
2540.17	0.184214
2539.69	0.184482
2539.21	0.183366
2538.73	0.184466
2538.24	0.186915
2537.76	0.186449
2537.28	0.183721
2536.8	0.183583
2536.32	0.18623
2535.83	0.187003
2535.35	0.185242
2534.87	0.185157
2534.39	0.187086
2533.9	0.186489
2533.42	0.183233
2532.94	0.182915
2532.46	0.18667
2531.97	0.188353
2531.49	0.185393
2531.01	0.183652
2530.53	0.18673
2530.05	0.189276
2529.56	0.186642
2529.08	0.183496
2528.6	0.185557
2528.12	0.189359
2527.63	0.188288
2527.15	0.184053
2526.67	0.183375
2526.19	0.186665
2525.71	0.188061
2525.22	0.1854
2524.74	0.182625
2524.26	0.182534
2523.78	0.183689
2523.29	0.184715
2522.81	0.186106
2522.33	0.187069
2521.85	0.185523
2521.36	0.182226
2520.88	0.180741
2520.4	0.182252
2519.92	0.183803
2519.44	0.183001
2518.95	0.181428
2518.47	0.181831
2517.99	0.184278
2517.51	0.186636
2517.02	0.187309
2516.54	0.18628
2516.06	0.184473
2515.58	0.182952
2515.09	0.182265
2514.61	0.182217
2514.13	0.182569
2513.65	0.183592
2513.17	0.185237
2512.68	0.186361
2512.2	0.18596
2511.72	0.184813
2511.24	0.18466
2510.75	0.185778
2510.27	0.186458
2509.79	0.185216
2509.31	0.182733
2508.83	0.181228
2508.34	0.182262
2507.86	0.185235
2507.38	0.187828
2506.9	0.188054
2506.41	0.186157
2505.93	0.18431
2505.45	0.184114
2504.97	0.184647
2504.48	0.183796
2504	0.181501
2503.52	0.180544
2503.04	0.183089
2502.56	0.187255
2502.07	0.188815
2501.59	0.186574
2501.11	0.184039
2500.63	0.184301
2500.14	0.185731
2499.66	0.185115
2499.18	0.18317
2498.7	0.183317
2498.22	0.185733
2497.73	0.18683
2497.25	0.185059
2496.77	0.183145
2496.29	0.183219
2495.8	0.183687
2495.32	0.182881
2494.84	0.182175
2494.36	0.183011
2493.87	0.184094
2493.39	0.18404
2492.91	0.183892
2492.43	0.184372
2491.95	0.183874
2491.46	0.182026
2490.98	0.181733
2490.5	0.18427
2490.02	0.186015
2489.53	0.184113
2489.05	0.181665
2488.57	0.182465
2488.09	0.184164
2487.6	0.182608
2487.12	0.180038
2486.64	0.181748
2486.16	0.186591
2485.68	0.188334
2485.19	0.185924
2484.71	0.184552
2484.23	0.185971
2483.75	0.185815
2483.26	0.18239
2482.78	0.180646
2482.3	0.184029
2481.82	0.188769
2481.34	0.190178
2480.85	0.189083
2480.37	0.188255
2479.89	0.187275
2479.41	0.185276
2478.92	0.18451
2478.44	0.186653
2477.96	0.188893
2477.48	0.188152
2476.99	0.186179
2476.51	0.186109
2476.03	0.186893
2475.55	0.185709
2475.07	0.183608
2474.58	0.183705
2474.1	0.185256
2473.62	0.18468
2473.14	0.181878
2472.65	0.180857
2472.17	0.183652
2471.69	0.187507
2471.21	0.188962
2470.73	0.187819
2470.24	0.186091
2469.76	0.185175
2469.28	0.185163
2468.8	0.185499
2468.31	0.18557
2467.83	0.185261
2467.35	0.184881
2466.87	0.184293
2466.38	0.183087
2465.9	0.182095
2465.42	0.18306
2464.94	0.18581
2464.46	0.187743
2463.97	0.187549
2463.49	0.187028
2463.01	0.187474
2462.53	0.186961
2462.04	0.184049
2461.56	0.181562
2461.08	0.182919
2460.6	0.186399
2460.11	0.187304
2459.63	0.185141
2459.15	0.18416
2458.67	0.186688
2458.19	0.190017
2457.7	0.190646
2457.22	0.188377
2456.74	0.185231
2456.26	0.183017
2455.77	0.182879
2455.29	0.18467
2454.81	0.186091
2454.33	0.184822
2453.85	0.181847
2453.36	0.180251
2452.88	0.180692
2452.4	0.181041
2451.92	0.180761
2451.43	0.182012
2450.95	0.185222
2450.47	0.187025
2449.99	0.184763
2449.5	0.180708
2449.02	0.179342
2448.54	0.182128
2448.06	0.186551
2447.58	0.18912
2447.09	0.188483
2446.61	0.186306
2446.13	0.185391
2445.65	0.18626
2445.16	0.186455
2444.68	0.184657
2444.2	0.18358
2443.72	0.185715
2443.24	0.188197
2442.75	0.186671
2442.27	0.183002
2441.79	0.183112
2441.31	0.187088
2440.82	0.18844
2440.34	0.184739
2439.86	0.181818
2439.38	0.184111
2438.89	0.187574
2438.41	0.186855
2437.93	0.183822
2437.45	0.183009
2436.97	0.18366
2436.48	0.182613
2436	0.181102
2435.52	0.182134
2435.04	0.184015
2434.55	0.183096
2434.07	0.180776
2433.59	0.181299
2433.11	0.184162
2432.62	0.18498
2432.14	0.18297
2431.66	0.181499
2431.18	0.181805
2430.7	0.181968
2430.21	0.18166
2429.73	0.182373
2429.25	0.18324
2428.77	0.182066
2428.28	0.180333
2427.8	0.181693
2427.32	0.185627
2426.84	0.187878
2426.36	0.187102
2425.87	0.185708
2425.39	0.18434
2424.91	0.181675
2424.43	0.179525
2423.94	0.181458
2423.46	0.185774
2422.98	0.18641
2422.5	0.182348
2422.01	0.179541
2421.53	0.181433
2421.05	0.184361
2420.57	0.184772
2420.09	0.184704
2419.6	0.186392
2419.12	0.187432
2418.64	0.18555
2418.16	0.183329
2417.67	0.183748
2417.19	0.185161
2416.71	0.184796
2416.23	0.183652
2415.75	0.183784
2415.26	0.184099
2414.78	0.182882
2414.3	0.181754
2413.82	0.183009
2413.33	0.185259
2412.85	0.185498
2412.37	0.183792
2411.89	0.182605
2411.4	0.182881
2410.92	0.18373
2410.44	0.184691
2409.96	0.18573
2409.48	0.186125
2408.99	0.185516
2408.51	0.184905
2408.03	0.185099
2407.55	0.185503
2407.06	0.185578
2406.58	0.185778
2406.1	0.186101
2405.62	0.185721
2405.13	0.184947
2404.65	0.185178
2404.17	0.18616
2403.69	0.185991
2403.21	0.184716
2402.72	0.184657
2402.24	0.186141
2401.76	0.186357
2401.28	0.184172
2400.79	0.182403
2400.31	0.183108
2399.83	0.184138
2399.35	0.182918
2398.87	0.180775
2398.38	0.180445
2397.9	0.181896
2397.42	0.18333
2396.94	0.184326
2396.45	0.185231
2395.97	0.185309
2395.49	0.184264
2395.01	0.183852
2394.52	0.185524
2394.04	0.187932
2393.56	0.188934
2393.08	0.188656
2392.6	0.188217
2392.11	0.187167
2391.63	0.184777
2391.15	0.18253
2390.67	0.182648
2390.18	0.184706
2389.7	0.185947
2389.22	0.185064
2388.74	0.183681
2388.26	0.183742
2387.77	0.184914
2387.29	0.185457
2386.81	0.184911
2386.33	0.184631
2385.84	0.185318
2385.36	0.185401
2384.88	0.183587
2384.4	0.181946
2383.91	0.183302
2383.43	0.185697
2382.95	0.183766
2382.47	0.177321
2381.99	0.173133
2381.5	0.174894
2381.02	0.177282
2380.54	0.17524
2380.06	0.173625
2379.57	0.178343
2379.09	0.182668
2378.61	0.175643
2378.13	0.162772
2377.64	0.161325
2377.16	0.175302
2376.68	0.184355
2376.2	0.173463
2375.72	0.156281
2375.23	0.153717
2374.75	0.166393
2374.27	0.174964
2373.79	0.170719
2373.3	0.164222
2372.82	0.165402
2372.34	0.169783
2371.86	0.168403
2371.38	0.161658
2370.89	0.157606
2370.41	0.160036
2369.93	0.162978
2369.45	0.158299
2368.96	0.14794
2368.48	0.144886
2368	0.154486
2367.52	0.164515
2367.03	0.15798
2366.55	0.140385
2366.07	0.132869
2365.59	0.141434
2365.11	0.152231
2364.62	0.154114
2364.14	0.151444
2363.66	0.146641
2363.18	0.137053
2362.69	0.1309
2362.21	0.139138
2361.73	0.151546
2361.25	0.144687
2360.77	0.124466
2360.28	0.118763
2359.8	0.133004
2359.32	0.140845
2358.84	0.132994
2358.35	0.131576
2357.87	0.143206
2357.39	0.142788
2356.91	0.125957
2356.42	0.1245
2355.94	0.152827
2355.46	0.178526
2354.98	0.172715
2354.5	0.154997
2354.01	0.151243
2353.53	0.156198
2353.05	0.155918
2352.57	0.155066
2352.08	0.157529
2351.6	0.154086
2351.12	0.146709
2350.64	0.15341
2350.15	0.174698
2349.67	0.179734
2349.19	0.162012
2348.71	0.148033
2348.23	0.158187
2347.74	0.181284
2347.26	0.181806
2346.78	0.159011
2346.3	0.148445
2345.81	0.16783
2345.33	0.179923
2344.85	0.160194
2344.37	0.140034
2343.89	0.147892
2343.4	0.162194
2342.92	0.15525
2342.44	0.145932
2341.96	0.158271
2341.47	0.173364
2340.99	0.165998
2340.51	0.153205
2340.03	0.161793
2339.54	0.176326
2339.06	0.168082
2338.58	0.14969
2338.1	0.15084
2337.62	0.164269
2337.13	0.159763
2336.65	0.140094
2336.17	0.136894
2335.69	0.154598
2335.2	0.161805
2334.72	0.150363
2334.24	0.143823
2333.76	0.153942
2333.28	0.161552
2332.79	0.154307
2332.31	0.148054
2331.83	0.154715
2331.35	0.159514
2330.86	0.151841
2330.38	0.146861
2329.9	0.15744
2329.42	0.16711
2328.93	0.159625
2328.45	0.148096
2327.97	0.1531
2327.49	0.167367
2327.01	0.169124
2326.52	0.157732
2326.04	0.153315
2325.56	0.162029
2325.08	0.170982
2324.59	0.168175
2324.11	0.161368
2323.63	0.161737
2323.15	0.169096
2322.66	0.174494
2322.18	0.173803
2321.7	0.17163
2321.22	0.170532
2320.74	0.168786
2320.25	0.164822
2319.77	0.160691
2319.29	0.16035
2318.81	0.165863
2318.32	0.170823
2317.84	0.170318
2317.36	0.167808
2316.88	0.169332
2316.4	0.173655
2315.91	0.174524
2315.43	0.171936
2314.95	0.170345
2314.47	0.170669
2313.98	0.16911
2313.5	0.16761
2313.02	0.173276
2312.54	0.182139
2312.05	0.179586
2311.57	0.166869
2311.09	0.15843
2310.61	0.16701
2310.13	0.177841
2309.64	0.176065
2309.16	0.169635
2308.68	0.173944
2308.2	0.184247
2307.71	0.183772
2307.23	0.174504
2306.75	0.171496
2306.27	0.180145
2305.79	0.185017
2305.3	0.179082
2304.82	0.171734
2304.34	0.172789
2303.86	0.177492
2303.37	0.178842
2302.89	0.179775
2302.41	0.183525
2301.93	0.184677
2301.44	0.180187
2300.96	0.176932
2300.48	0.180935
2300	0.18615
2299.52	0.18395
2299.03	0.178308
2298.55	0.177696
2298.07	0.18158
2297.59	0.18221
2297.1	0.178692
2296.62	0.17723
2296.14	0.179787
2295.66	0.18189
2295.17	0.180907
2294.69	0.179856
2294.21	0.181029
2293.73	0.183203
2293.25	0.184716
2292.76	0.185384
2292.28	0.18494
2291.8	0.183128
2291.32	0.181517
2290.83	0.181758
2290.35	0.182554
2289.87	0.181961
2289.39	0.180738
2288.91	0.18058
2288.42	0.180922
2287.94	0.180862
2287.46	0.181815
2286.98	0.184601
2286.49	0.186508
2286.01	0.185293
2285.53	0.183521
2285.05	0.184489
2284.56	0.18627
2284.08	0.185004
2283.6	0.182124
2283.12	0.182517
2282.64	0.186329
2282.15	0.188597
2281.67	0.187117
2281.19	0.185659
2280.71	0.187278
2280.22	0.189536
2279.74	0.188731
2279.26	0.185642
2278.78	0.183704
2278.29	0.183707
2277.81	0.183557
2277.33	0.182387
2276.85	0.182145
2276.37	0.184183
2275.88	0.186321
2275.4	0.185649
2274.92	0.183511
2274.44	0.18414
2273.95	0.187726
2273.47	0.188524
2272.99	0.183543
2272.51	0.17841
2272.03	0.180043
2271.54	0.185994
2271.06	0.18772
2270.58	0.183853
2270.1	0.181454
2269.61	0.183945
2269.13	0.186023
2268.65	0.183608
2268.17	0.180712
2267.68	0.1819
2267.2	0.18456
2266.72	0.184248
2266.24	0.182367
2265.76	0.182858
2265.27	0.185155
2264.79	0.186057
2264.31	0.18534
2263.83	0.184797
2263.34	0.184511
2262.86	0.184105
2262.38	0.18475
2261.9	0.186233
2261.42	0.185529
2260.93	0.182072
2260.45	0.180395
2259.97	0.183362
2259.49	0.186811
2259	0.185526
2258.52	0.181128
2258.04	0.178677
2257.56	0.179147
2257.07	0.180674
2256.59	0.183416
2256.11	0.187489
2255.63	0.189192
2255.15	0.185587
2254.66	0.180617
2254.18	0.180219
2253.7	0.183461
2253.22	0.184727
2252.73	0.18296
2252.25	0.182195
2251.77	0.183764
2251.29	0.184619
2250.8	0.183421
2250.32	0.182459
2249.84	0.182842
2249.36	0.18324
2248.88	0.183763
2248.39	0.186086
2247.91	0.188988
2247.43	0.188657
2246.95	0.184615
2246.46	0.181145
2245.98	0.181066
2245.5	0.182467
2245.02	0.182823
2244.54	0.182559
2244.05	0.182806
2243.57	0.182792
2243.09	0.181678
2242.61	0.180689
2242.12	0.181366
2241.64	0.183111
2241.16	0.183953
2240.68	0.183096
2240.19	0.181769
2239.71	0.181754
2239.23	0.183343
2238.75	0.18465
2238.27	0.183783
2237.78	0.181656
2237.3	0.181017
2236.82	0.182291
2236.34	0.182825
2235.85	0.181434
2235.37	0.180628
2234.89	0.182173
2234.41	0.183522
2233.93	0.182081
2233.44	0.180275
2232.96	0.182038
2232.48	0.185975
2232	0.186874
2231.51	0.183772
2231.03	0.181383
2230.55	0.182725
2230.07	0.18506
2229.58	0.184777
2229.1	0.182685
2228.62	0.181902
2228.14	0.183093
2227.66	0.184465
2227.17	0.184975
2226.69	0.184982
2226.21	0.184499
2225.73	0.183123
2225.24	0.181657
2224.76	0.181875
2224.28	0.184048
2223.8	0.185972
2223.31	0.18559
2222.83	0.183737
2222.35	0.182991
2221.87	0.184098
2221.39	0.184993
2220.9	0.18393
2220.42	0.1821
2219.94	0.182028
2219.46	0.184224
2218.97	0.186783
2218.49	0.187669
2218.01	0.186359
2217.53	0.183741
2217.05	0.181448
2216.56	0.180952
2216.08	0.182244
2215.6	0.183858
2215.12	0.18495
2214.63	0.18611
2214.15	0.18727
2213.67	0.18673
2213.19	0.183937
2212.7	0.181299
2212.22	0.18104
2211.74	0.181902
2211.26	0.181651
2210.78	0.181109
2210.29	0.182354
2209.81	0.184362
2209.33	0.184279
2208.85	0.182337
2208.36	0.181571
2207.88	0.18287
2207.4	0.184284
2206.92	0.185004
2206.44	0.186155
2205.95	0.187403
2205.47	0.186747
2204.99	0.1844
2204.51	0.18314
2204.02	0.18391
2203.54	0.184496
2203.06	0.183498
2202.58	0.182415
2202.09	0.182729
2201.61	0.183925
2201.13	0.185118
2200.65	0.185958
2200.17	0.185636
2199.68	0.183911
2199.2	0.183023
2198.72	0.185098
2198.24	0.18787
2197.75	0.18707
2197.27	0.183237
2196.79	0.181369
2196.31	0.183141
2195.82	0.184753
2195.34	0.183835
2194.86	0.183235
2194.38	0.185367
2193.9	0.187811
2193.41	0.187537
2192.93	0.185566
2192.45	0.184038
2191.97	0.182477
2191.48	0.180446
2191	0.1803
2190.52	0.183536
2190.04	0.187312
2189.56	0.188008
2189.07	0.186115
2188.59	0.184258
2188.11	0.182839
2187.63	0.181345
2187.14	0.181309
2186.66	0.183806
2186.18	0.185974
2185.7	0.184365
2185.21	0.180613
2184.73	0.179399
2184.25	0.181518
2183.77	0.183277
2183.29	0.182703
2182.8	0.182052
2182.32	0.183206
2181.84	0.184478
2181.36	0.183841
2180.87	0.182455
2180.39	0.182502
2179.91	0.183617
2179.43	0.183856
2178.95	0.183113
2178.46	0.183219
2177.98	0.184906
2177.5	0.186689
2177.02	0.186971
2176.53	0.185759
2176.05	0.183936
2175.57	0.18217
2175.09	0.181172
2174.6	0.181658
2174.12	0.183038
2173.64	0.183498
2173.16	0.182576
2172.68	0.182169
2172.19	0.183564
2171.71	0.184984
2171.23	0.184418
2170.75	0.183376
2170.26	0.184582
2169.78	0.18693
2169.3	0.186682
2168.82	0.18375
2168.33	0.182289
2167.85	0.184147
2167.37	0.186199
2166.89	0.185785
2166.41	0.184636
2165.92	0.184884
2165.44	0.185259
2164.96	0.184368
2164.48	0.184011
2163.99	0.185609
2163.51	0.186726
2163.03	0.185106
2162.55	0.1832
2162.07	0.184393
2161.58	0.187198
2161.1	0.187882
2160.62	0.186654
2160.14	0.186382
2159.65	0.186811
2159.17	0.185311
2158.69	0.182464
2158.21	0.181732
2157.72	0.183759
2157.24	0.185626
2156.76	0.185763
2156.28	0.185513
2155.8	0.185568
2155.31	0.184943
2154.83	0.183928
2154.35	0.184316
2153.87	0.186047
2153.38	0.186891
2152.9	0.186012
2152.42	0.185001
2151.94	0.184989
2151.46	0.185457
2150.97	0.185985
2150.49	0.186678
2150.01	0.186971
2149.53	0.186377
2149.04	0.185874
2148.56	0.186146
2148.08	0.185693
2147.6	0.183556
2147.11	0.182349
2146.63	0.184769
2146.15	0.188505
2145.67	0.189016
2145.19	0.186528
2144.7	0.185471
2144.22	0.187094
2143.74	0.188083
2143.26	0.186882
2142.77	0.186187
2142.29	0.187552
2141.81	0.188454
2141.33	0.186946
2140.84	0.18516
2140.36	0.185427
2139.88	0.186343
2139.4	0.185556
2138.92	0.183826
2138.43	0.183525
2137.95	0.184935
2137.47	0.186365
2136.99	0.186761
2136.5	0.186385
2136.02	0.185853
2135.54	0.185783
2135.06	0.1864
2134.58	0.186811
2134.09	0.185897
2133.61	0.184345
2133.13	0.184071
2132.65	0.185244
2132.16	0.185878
2131.68	0.18508
2131.2	0.184606
2130.72	0.185894
2130.23	0.187554
2129.75	0.187411
2129.27	0.185778
2128.79	0.184832
2128.31	0.185473
2127.82	0.186423
2127.34	0.186165
2126.86	0.184721
2126.38	0.183352
2125.89	0.183084
2125.41	0.183789
2124.93	0.184504
2124.45	0.184539
2123.97	0.184002
2123.48	0.183245
2123	0.182386
2122.52	0.181711
2122.04	0.181808
2121.55	0.182653
2121.07	0.183199
2120.59	0.182732
2120.11	0.182146
2119.62	0.182948
2119.14	0.185216
2118.66	0.18735
2118.18	0.187866
2117.7	0.186796
2117.21	0.185274
2116.73	0.184264
2116.25	0.1839
2115.77	0.183975
2115.28	0.184642
2114.8	0.185907
2114.32	0.186576
2113.84	0.18516
2113.35	0.182531
2112.87	0.181917
2112.39	0.184646
2111.91	0.187597
2111.43	0.187181
2110.94	0.184513
2110.46	0.183433
2109.98	0.184399
2109.5	0.184284
2109.01	0.182113
2108.53	0.180875
2108.05	0.182472
2107.57	0.18479
2107.09	0.185256
2106.6	0.184273
2106.12	0.183448
2105.64	0.183034
2105.16	0.182835
2104.67	0.183205
2104.19	0.183759
2103.71	0.183372
2103.23	0.182478
2102.74	0.182813
2102.26	0.183985
2101.78	0.183498
2101.3	0.181242
2100.82	0.180487
2100.33	0.182602
2099.85	0.184508
2099.37	0.183603
2098.89	0.181806
2098.4	0.18198
2097.92	0.183294
2097.44	0.183246
2096.96	0.181957
2096.48	0.181447
2095.99	0.182433
2095.51	0.184239
2095.03	0.186147
2094.55	0.186917
2094.06	0.185052
2093.58	0.181497
2093.1	0.179699
2092.62	0.181005
2092.13	0.182595
2091.65	0.182012
2091.17	0.18097
2090.69	0.181983
2090.21	0.184005
2089.72	0.184525
2089.24	0.183767
2088.76	0.183541
2088.28	0.183787
2087.79	0.183417
2087.31	0.182889
2086.83	0.183063
2086.35	0.183075
2085.86	0.182116
2085.38	0.181708
2084.9	0.183409
2084.42	0.185756
2083.94	0.18624
2083.45	0.185046
2082.97	0.183985
2082.49	0.183292
2082.01	0.182319
2081.52	0.181997
2081.04	0.183543
2080.56	0.185662
2080.08	0.185862
2079.6	0.184118
2079.11	0.182719
2078.63	0.182871
2078.15	0.183697
2077.67	0.184169
2077.18	0.18416
2076.7	0.18391
2076.22	0.183857
2075.74	0.184488
2075.25	0.185375
2074.77	0.185288
2074.29	0.184088
2073.81	0.183173
2073.33	0.183276
2072.84	0.18352
2072.36	0.183437
2071.88	0.183816
2071.4	0.184571
2070.91	0.18431
2070.43	0.183281
2069.95	0.183878
2069.47	0.186467
2068.99	0.187755
2068.5	0.185642
2068.02	0.182892
2067.54	0.183077
2067.06	0.185441
2066.57	0.186697
2066.09	0.186002
2065.61	0.184957
2065.13	0.18432
2064.64	0.183682
2064.16	0.183203
2063.68	0.183192
2063.2	0.18311
2062.72	0.182948
2062.23	0.183884
2061.75	0.185765
2061.27	0.186178
2060.79	0.184278
2060.3	0.182936
2059.82	0.184192
2059.34	0.185452
2058.86	0.183733
2058.37	0.18106
2057.89	0.181193
2057.41	0.183215
2056.93	0.183171
2056.45	0.181042
2055.96	0.180757
2055.48	0.183378
2055	0.185281
2054.52	0.184219
2054.03	0.182615
2053.55	0.183105
2053.07	0.184494
2052.59	0.184271
2052.11	0.182564
2051.62	0.181367
2051.14	0.181627
2050.66	0.182825
2050.18	0.184313
2049.69	0.185585
2049.21	0.186021
2048.73	0.185494
2048.25	0.184741
2047.76	0.18456
2047.28	0.184998
2046.8	0.185441
2046.32	0.185123
2045.84	0.183806
2045.35	0.182434
2044.87	0.182434
2044.39	0.183824
2043.91	0.184917
2043.42	0.18475
2042.94	0.184542
2042.46	0.185264
2041.98	0.185455
2041.5	0.183656
2041.01	0.18169
2040.53	0.182322
2040.05	0.184443
2039.57	0.184242
2039.08	0.181295
2038.6	0.179575
2038.12	0.181373
2037.64	0.183774
2037.15	0.183481
2036.67	0.182059
2036.19	0.182969
2035.71	0.185681
2035.23	0.186567
2034.74	0.184805
2034.26	0.183323
2033.78	0.183648
2033.3	0.183736
2032.81	0.182072
2032.33	0.180622
2031.85	0.181629
2031.37	0.183959
2030.88	0.185037
2030.4	0.184593
2029.92	0.184154
2029.44	0.1841
2028.96	0.183772
2028.47	0.183513
2027.99	0.184068
2027.51	0.184611
2027.03	0.183871
2026.54	0.182649
2026.06	0.182642
2025.58	0.183369
2025.1	0.183151
2024.62	0.182548
2024.13	0.183418
2023.65	0.184828
2023.17	0.183938
2022.69	0.181384
2022.2	0.181277
2021.72	0.184455
2021.24	0.186469
2020.76	0.184548
2020.27	0.182185
2019.79	0.183283
2019.31	0.185942
2018.83	0.185988
2018.35	0.183884
2017.86	0.183318
2017.38	0.184926
2016.9	0.186171
2016.42	0.186067
2015.93	0.185712
2015.45	0.184957
2014.97	0.183005
2014.49	0.181553
2014.01	0.183004
2013.52	0.185969
2013.04	0.186521
2012.56	0.184193
2012.08	0.182499
2011.59	0.183149
2011.11	0.183998
2010.63	0.183473
2010.15	0.183066
2009.66	0.183915
2009.18	0.18442
2008.7	0.183189
2008.22	0.181616
2007.74	0.181545
2007.25	0.182503
2006.77	0.182945
2006.29	0.182617
2005.81	0.182171
2005.32	0.181812
2004.84	0.181493
2004.36	0.181451
2003.88	0.181811
2003.39	0.182472
2002.91	0.183535
2002.43	0.184788
2001.95	0.185092
2001.47	0.183865
2000.98	0.182691
2000.5	0.183343
2000.02	0.184826
1999.54	0.184696
1999.05	0.183106
1998.57	0.182549
1998.09	0.183546
1997.61	0.183772
1997.13	0.182261
1996.64	0.181215
1996.16	0.182245
1995.68	0.183673
1995.2	0.183464
1994.71	0.1825
1994.23	0.182668
1993.75	0.183638
1993.27	0.183801
1992.78	0.183197
1992.3	0.183169
1991.82	0.183888
1991.34	0.18407
1990.86	0.183336
1990.37	0.182687
1989.89	0.182649
1989.41	0.182547
1988.93	0.18187
1988.44	0.181444
1987.96	0.18255
1987.48	0.184952
1987	0.186563
1986.52	0.185674
1986.03	0.183073
1985.55	0.181477
1985.07	0.182436
1984.59	0.184589
1984.1	0.185645
1983.62	0.185073
1983.14	0.183861
1982.66	0.182541
1982.17	0.181107
1981.69	0.18034
1981.21	0.181306
1980.73	0.183483
1980.25	0.184912
1979.76	0.184583
1979.28	0.18356
1978.8	0.183348
1978.32	0.184215
1977.83	0.185362
1977.35	0.185913
1976.87	0.185584
1976.39	0.18493
1975.9	0.184786
1975.42	0.185007
1974.94	0.184556
1974.46	0.183518
1973.98	0.183692
1973.49	0.185662
1973.01	0.186793
1972.53	0.184622
1972.05	0.181319
1971.56	0.181395
1971.08	0.185092
1970.6	0.187626
1970.12	0.185936
1969.64	0.182829
1969.15	0.182402
1968.67	0.184288
1968.19	0.185309
1967.71	0.184629
1967.22	0.184096
1966.74	0.184375
1966.26	0.184013
1965.78	0.1826
1965.29	0.18163
1964.81	0.181855
1964.33	0.182412
1963.85	0.183158
1963.37	0.185276
1962.88	0.188386
1962.4	0.189503
1961.92	0.186895
1961.44	0.183126
1960.95	0.182007
1960.47	0.183657
1959.99	0.185149
1959.51	0.185105
1959.03	0.184827
1958.54	0.185071
1958.06	0.18478
1957.58	0.183681
1957.1	0.18327
1956.61	0.18397
1956.13	0.183913
1955.65	0.182254
1955.17	0.181171
1954.68	0.182482
1954.2	0.184332
1953.72	0.184126
1953.24	0.182976
1952.76	0.183766
1952.27	0.186108
1951.79	0.186832
1951.31	0.18528
1950.83	0.184276
1950.34	0.185273
1949.86	0.186181
1949.38	0.185323
1948.9	0.184286
1948.41	0.184858
1947.93	0.185862
1947.45	0.18546
1946.97	0.184506
1946.49	0.18499
1946	0.186613
1945.52	0.187401
1945.04	0.186857
1944.56	0.185933
1944.07	0.184725
1943.59	0.182837
1943.11	0.181543
1942.63	0.182993
1942.15	0.186201
1941.66	0.186814
1941.18	0.184002
1940.7	0.181891
1940.22	0.183563
1939.73	0.186774
1939.25	0.187012
1938.77	0.184108
1938.29	0.181939
1937.8	0.182544
1937.32	0.183993
1936.84	0.184589
1936.36	0.185314
1935.88	0.186515
1935.39	0.185918
1934.91	0.182746
1934.43	0.180627
1933.95	0.182783
1933.46	0.186426
1932.98	0.186424
1932.5	0.18311
1932.02	0.181608
1931.54	0.183742
1931.05	0.185786
1930.57	0.185104
1930.09	0.183834
1929.61	0.184134
1929.12	0.18437
1928.64	0.182932
1928.16	0.18191
1927.68	0.183538
1927.19	0.185968
1926.71	0.186128
1926.23	0.184493
1925.75	0.183552
1925.27	0.183507
1924.78	0.182951
1924.3	0.182224
1923.82	0.18275
1923.34	0.184083
1922.85	0.184412
1922.37	0.183534
1921.89	0.182904
1921.41	0.183059
1920.92	0.183609
1920.44	0.184446
1919.96	0.184986
1919.48	0.184161
1919	0.182708
1918.51	0.183131
1918.03	0.185763
1917.55	0.186162
1917.07	0.182436
1916.58	0.179852
1916.1	0.182243
1915.62	0.186462
1915.14	0.186645
1914.66	0.183083
1914.17	0.180994
1913.69	0.181853
1913.21	0.182347
1912.73	0.181403
1912.24	0.181973
1911.76	0.184709
1911.28	0.18574
1910.8	0.18308
1910.31	0.18012
1909.83	0.180478
1909.35	0.182831
1908.87	0.183669
1908.39	0.182648
1907.9	0.181646
1907.42	0.181673
1906.94	0.182593
1906.46	0.184082
1905.97	0.185257
1905.49	0.184812
1905.01	0.18301
1904.53	0.181846
1904.05	0.18234
1903.56	0.183357
1903.08	0.183639
1902.6	0.183419
1902.12	0.183303
1901.63	0.183332
1901.15	0.18353
1900.67	0.183871
1900.19	0.183748
1899.7	0.182989
1899.22	0.182842
1898.74	0.184008
1898.26	0.18479
1897.78	0.18373
1897.29	0.18285
1896.81	0.184771
1896.33	0.187658
1895.85	0.187293
1895.36	0.183748
1894.88	0.181761
1894.4	0.183449
1893.92	0.185253
1893.43	0.184266
1892.95	0.182246
1892.47	0.18172
1891.99	0.182489
1891.51	0.183521
1891.02	0.184978
1890.54	0.186288
1890.06	0.185474
1889.58	0.18257
1889.09	0.181229
1888.61	0.18337
1888.13	0.185848
1887.65	0.186304
1887.17	0.186295
1886.68	0.187266
1886.2	0.187361
1885.72	0.185107
1885.24	0.182966
1884.75	0.183757
1884.27	0.185937
1883.79	0.18621
1883.31	0.184993
1882.82	0.1848
1882.34	0.185409
1881.86	0.184758
1881.38	0.183444
1880.9	0.183939
1880.41	0.185953
1879.93	0.186647
1879.45	0.185529
1878.97	0.185013
1878.48	0.185905
1878	0.186178
1877.52	0.185135
1877.04	0.184926
1876.55	0.186601
1876.07	0.187864
1875.59	0.186799
1875.11	0.184988
1874.63	0.184794
1874.14	0.185693
1873.66	0.185822
1873.18	0.185258
1872.7	0.185248
1872.21	0.185391
1871.73	0.184445
1871.25	0.183212
1870.77	0.183681
1870.29	0.185281
1869.8	0.184954
1869.32	0.181391
1868.84	0.178263
1868.36	0.179456
1867.87	0.183008
1867.39	0.184883
1866.91	0.184304
1866.43	0.183448
1865.94	0.183645
1865.46	0.184172
1864.98	0.184324
1864.5	0.184427
1864.02	0.184775
1863.53	0.185316
1863.05	0.186345
1862.57	0.187856
1862.09	0.188416
1861.6	0.186697
1861.12	0.184192
1860.64	0.183809
1860.16	0.185426
1859.68	0.185975
1859.19	0.184514
1858.71	0.183836
1858.23	0.185477
1857.75	0.18672
1857.26	0.185173
1856.78	0.183264
1856.3	0.184296
1855.82	0.186975
1855.33	0.187476
1854.85	0.18571
1854.37	0.184775
1853.89	0.185255
1853.41	0.184709
1852.92	0.182747
1852.44	0.181987
1851.96	0.18331
1851.48	0.184129
1850.99	0.183045
1850.51	0.182193
1850.03	0.183208
1849.55	0.184192
1849.06	0.183164
1848.58	0.181553
1848.1	0.181882
1847.62	0.184041
1847.14	0.185958
1846.65	0.186765
1846.17	0.186541
1845.69	0.185169
1845.21	0.183305
1844.72	0.182617
1844.24	0.183767
1843.76	0.183675
1843.28	0.181052
1842.8	0.179978
1842.31	0.182288
1841.83	0.185456
1841.35	0.185785
1840.87	0.184104
1840.38	0.183847
1839.9	0.184992
1839.42	0.18484
1838.94	0.183544
1838.45	0.183879
1837.97	0.185826
1837.49	0.186362
1837.01	0.185018
1836.53	0.184775
1836.04	0.186193
1835.56	0.186343
1835.08	0.184793
1834.6	0.184742
1834.11	0.186728
1833.63	0.186759
1833.15	0.183519
1832.67	0.181464
1832.19	0.183258
1831.7	0.184718
1831.22	0.182494
1830.74	0.180321
1830.26	0.182986
1829.77	0.186899
1829.29	0.184068
1828.81	0.178503
1828.33	0.178606
1827.84	0.183287
1827.36	0.185565
1826.88	0.18403
1826.4	0.183992
1825.92	0.187125
1825.43	0.188538
1824.95	0.185194
1824.47	0.182741
1823.99	0.184586
1823.5	0.186143
1823.02	0.18474
1822.54	0.183744
1822.06	0.186056
1821.57	0.188436
1821.09	0.187446
1820.61	0.185151
1820.13	0.184743
1819.65	0.185577
1819.16	0.186292
1818.68	0.187982
1818.2	0.19032
1817.72	0.189919
1817.23	0.186677
1816.75	0.185965
1816.27	0.189546
1815.79	0.191025
1815.31	0.186644
1814.82	0.182596
1814.34	0.185497
1813.86	0.191008
1813.38	0.190823
1812.89	0.18632
1812.41	0.185187
1811.93	0.18834
1811.45	0.18949
1810.96	0.186896
1810.48	0.1854
1810	0.187162
1809.52	0.188682
1809.04	0.189127
1808.55	0.191136
1808.07	0.193841
1807.59	0.19313
1807.11	0.189628
1806.62	0.188253
1806.14	0.189336
1805.66	0.188873
1805.18	0.187142
1804.7	0.188606
1804.21	0.192667
1803.73	0.193424
1803.25	0.190264
1802.77	0.188791
1802.28	0.190469
1801.8	0.189714
1801.32	0.186013
1800.84	0.186714
1800.35	0.192869
1799.87	0.194852
1799.39	0.187803
1798.91	0.182312
1798.43	0.18755
1797.94	0.195017
1797.46	0.19451
1796.98	0.189624
1796.5	0.19035
1796.01	0.196226
1795.53	0.197384
1795.05	0.19231
1794.57	0.189386
1794.08	0.191301
1793.6	0.191825
1793.12	0.18808
1792.64	0.185993
1792.16	0.19114
1791.67	0.194842
1791.19	0.19216
1790.71	0.189042
1790.23	0.191345
1789.74	0.196048
1789.26	0.197639
1788.78	0.196825
1788.3	0.196591
1787.82	0.197178
1787.33	0.197669
1786.85	0.198939
1786.37	0.200787
1785.89	0.200114
1785.4	0.19604
1784.92	0.193315
1784.44	0.196952
1783.96	0.2024
1783.47	0.202694
1782.99	0.199418
1782.51	0.198124
1782.03	0.19982
1781.55	0.200295
1781.06	0.198422
1780.58	0.198417
1780.1	0.202372
1779.62	0.205269
1779.13	0.203993
1778.65	0.201717
1778.17	0.202337
1777.69	0.205007
1777.21	0.206605
1776.72	0.206747
1776.24	0.206829
1775.76	0.207052
1775.28	0.207139
1774.79	0.208104
1774.31	0.210074
1773.83	0.211044
1773.35	0.20985
1772.86	0.208277
1772.38	0.209956
1771.9	0.212871
1771.42	0.212579
1770.94	0.211239
1770.45	0.213527
1769.97	0.219141
1769.49	0.223815
1769.01	0.226038
1768.52	0.226632
1768.04	0.226572
1767.56	0.226948
1767.08	0.228801
1766.59	0.231931
1766.11	0.235168
1765.63	0.238099
1765.15	0.241743
1764.67	0.246067
1764.18	0.248838
1763.7	0.24961
1763.22	0.251799
1762.74	0.257137
1762.25	0.262087
1761.77	0.26285
1761.29	0.264849
1760.81	0.275415
1760.33	0.288759
1759.84	0.297341
1759.36	0.301315
1758.88	0.306311
1758.4	0.314315
1757.91	0.322067
1757.43	0.329796
1756.95	0.342025
1756.47	0.357248
1755.98	0.366997
1755.5	0.372948
1755.02	0.384894
1754.54	0.405047
1754.06	0.425446
1753.57	0.440508
1753.09	0.454616
1752.61	0.47119
1752.13	0.485501
1751.64	0.494842
1751.16	0.509057
1750.68	0.538458
1750.2	0.567662
1749.72	0.585197
1749.23	0.597583
1748.75	0.611267
1748.27	0.624719
1747.79	0.636333
1747.3	0.65176
1746.82	0.673103
1746.34	0.692712
1745.86	0.70532
1745.37	0.716622
1744.89	0.73022
1744.41	0.740778
1743.93	0.745499
1743.45	0.750689
1742.96	0.760285
1742.48	0.769493
1742	0.775505
1741.52	0.780417
1741.03	0.781662
1740.55	0.7764
1740.07	0.774542
1739.59	0.792495
1739.1	0.814597
1738.62	0.810255
1738.14	0.794171
1737.66	0.791422
1737.18	0.802973
1736.69	0.805451
1736.21	0.78986
1735.73	0.773285
1735.25	0.764082
1734.76	0.755639
1734.28	0.747079
1733.8	0.757176
1733.32	0.780943
1732.84	0.78541
1732.35	0.773721
1731.87	0.763511
1731.39	0.75273
1730.91	0.732824
1730.42	0.711639
1729.94	0.705595
1729.46	0.706562
1728.98	0.688712
1728.49	0.657648
1728.01	0.6354
1727.53	0.624017
1727.05	0.608298
1726.57	0.585413
1726.08	0.568449
1725.6	0.55852
1725.12	0.541137
1724.64	0.514007
1724.15	0.492532
1723.67	0.48336
1723.19	0.474187
1722.71	0.454889
1722.23	0.435498
1721.74	0.425215
1721.26	0.418017
1720.78	0.404367
1720.3	0.387837
1719.81	0.375656
1719.33	0.365205
1718.85	0.349593
1718.37	0.332175
1717.88	0.325762
1717.4	0.331827
1716.92	0.327991
1716.44	0.312256
1715.96	0.301106
1715.47	0.299073
1714.99	0.299638
1714.51	0.293159
1714.03	0.282949
1713.54	0.277888
1713.06	0.27681
1712.58	0.274434
1712.1	0.269796
1711.61	0.265776
1711.13	0.263106
1710.65	0.260223
1710.17	0.257104
1709.69	0.255007
1709.2	0.253046
1708.72	0.24976
1708.24	0.246655
1707.76	0.245856
1707.27	0.245718
1706.79	0.242516
1706.31	0.236337
1705.83	0.233344
1705.35	0.235135
1704.86	0.236812
1704.38	0.23542
1703.9	0.232882
1703.42	0.232156
1702.93	0.231918
1702.45	0.230513
1701.97	0.229087
1701.49	0.229625
1701	0.231762
1700.52	0.231414
1700.04	0.218444
1699.56	0.20948
1699.08	0.214497
1698.59	0.221852
1698.11	0.227903
1697.63	0.228509
1697.15	0.223361
1696.66	0.217896
1696.18	0.21726
1695.7	0.222905
1695.22	0.2233
1694.74	0.218282
1694.25	0.217745
1693.77	0.221319
1693.29	0.223863
1692.81	0.2215
1692.32	0.21755
1691.84	0.216751
1691.36	0.217639
1690.88	0.2159
1690.39	0.211599
1689.91	0.208851
1689.43	0.208862
1688.95	0.20895
1688.47	0.208257
1687.98	0.208429
1687.5	0.209104
1687.02	0.207906
1686.54	0.205482
1686.05	0.204562
1685.57	0.205468
1685.09	0.205252
1684.61	0.200412
1684.12	0.194553
1683.64	0.193277
1683.16	0.193925
1682.68	0.195763
1682.2	0.200036
1681.71	0.204473
1681.23	0.205233
1680.75	0.20192
1680.27	0.198663
1679.78	0.199098
1679.3	0.200913
1678.82	0.200919
1678.34	0.20043
1677.86	0.200852
1677.37	0.200248
1676.89	0.197382
1676.41	0.195222
1675.93	0.196547
1675.44	0.199918
1674.96	0.19843
1674.48	0.193963
1674	0.194837
1673.51	0.199627
1673.03	0.203085
1672.55	0.201767
1672.07	0.19744
1671.59	0.194061
1671.1	0.193845
1670.62	0.195294
1670.14	0.195764
1669.66	0.19433
1669.17	0.191539
1668.69	0.191142
1668.21	0.19399
1667.73	0.196232
1667.25	0.196655
1666.76	0.196389
1666.28	0.197226
1665.8	0.199084
1665.32	0.200503
1664.83	0.200484
1664.35	0.199329
1663.87	0.197631
1663.39	0.195273
1662.9	0.19289
1662.42	0.192919
1661.94	0.194965
1661.46	0.196053
1660.98	0.195877
1660.49	0.195895
1660.01	0.196834
1659.53	0.197679
1659.05	0.197486
1658.56	0.196896
1658.08	0.197144
1657.6	0.198091
1657.12	0.198445
1656.63	0.19774
1656.15	0.197213
1655.67	0.197576
1655.19	0.197183
1654.71	0.193628
1654.22	0.188201
1653.74	0.187482
1653.26	0.195331
1652.78	0.202139
1652.29	0.190473
1651.81	0.184744
1651.33	0.191145
1650.85	0.198136
1650.37	0.199164
1649.88	0.194614
1649.4	0.192139
1648.92	0.194942
1648.44	0.19689
1647.95	0.191583
1647.47	0.18519
1646.99	0.18762
1646.51	0.194521
1646.02	0.195841
1645.54	0.18955
1645.06	0.18813
1644.58	0.192472
1644.1	0.195485
1643.61	0.194713
1643.13	0.192911
1642.65	0.193148
1642.17	0.194291
1641.68	0.194445
1641.2	0.19416
1640.72	0.194325
1640.24	0.194096
1639.76	0.192995
1639.27	0.192254
1638.79	0.192096
1638.31	0.190736
1637.83	0.187573
1637.34	0.185887
1636.86	0.188123
1636.38	0.190986
1635.9	0.190839
1635.41	0.185967
1634.93	0.182305
1634.45	0.185026
1633.97	0.188288
1633.49	0.190113
1633	0.190751
1632.52	0.190819
1632.04	0.191274
1631.56	0.192492
1631.07	0.193343
1630.59	0.192314
1630.11	0.190005
1629.63	0.188942
1629.14	0.190109
1628.66	0.191505
1628.18	0.190938
1627.7	0.189148
1627.22	0.189222
1626.73	0.191107
1626.25	0.191873
1625.77	0.19082
1625.29	0.190251
1624.8	0.191808
1624.32	0.193158
1623.84	0.19052
1623.36	0.184269
1622.88	0.183107
1622.39	0.189073
1621.91	0.193389
1621.43	0.191526
1620.95	0.186371
1620.46	0.184936
1619.98	0.188358
1619.5	0.190817
1619.02	0.188419
1618.53	0.184665
1618.05	0.184626
1617.57	0.187435
1617.09	0.188844
1616.61	0.184788
1616.12	0.180324
1615.64	0.181976
1615.16	0.185084
1614.68	0.186881
1614.19	0.187608
1613.71	0.188592
1613.23	0.190057
1612.75	0.190464
1612.27	0.188734
1611.78	0.18645
1611.3	0.186304
1610.82	0.188044
1610.34	0.188807
1609.85	0.187361
1609.37	0.186075
1608.89	0.186879
1608.41	0.187639
1607.92	0.186188
1607.44	0.184592
1606.96	0.186026
1606.48	0.18913
1606	0.189687
1605.51	0.187772
1605.03	0.1873
1604.55	0.189399
1604.07	0.19072
1603.58	0.189088
1603.1	0.186681
1602.62	0.186215
1602.14	0.187168
1601.65	0.187725
1601.17	0.187482
1600.69	0.186553
1600.21	0.185075
1599.73	0.184398
1599.24	0.185911
1598.76	0.188252
1598.28	0.188419
1597.8	0.186692
1597.31	0.186465
1596.83	0.188484
1596.35	0.189272
1595.87	0.186959
1595.39	0.184555
1594.9	0.184845
1594.42	0.186223
1593.94	0.186167
1593.46	0.185791
1592.97	0.187146
1592.49	0.189063
1592.01	0.189207
1591.53	0.18809
1591.04	0.187918
1590.56	0.188706
1590.08	0.18868
1589.6	0.187464
1589.12	0.18636
1588.63	0.186094
1588.15	0.186338
1587.67	0.1868
1587.19	0.187167
1586.7	0.186981
1586.22	0.186739
1585.74	0.187679
1585.26	0.189415
1584.78	0.18968
1584.29	0.187748
1583.81	0.185894
1583.33	0.185978
1582.85	0.186674
1582.36	0.186335
1581.88	0.186103
1581.4	0.187568
1580.92	0.189253
1580.43	0.188692
1579.95	0.186385
1579.47	0.184856
1578.99	0.184467
1578.51	0.183805
1578.02	0.183409
1577.54	0.185131
1577.06	0.188013
1576.58	0.188086
1576.09	0.180776
1575.61	0.174762
1575.13	0.179495
1574.65	0.185073
1574.16	0.186994
1573.68	0.186099
1573.2	0.186188
1572.72	0.188426
1572.24	0.189476
1571.75	0.187073
1571.27	0.184492
1570.79	0.185313
1570.31	0.187587
1569.82	0.185817
1569.34	0.17865
1568.86	0.176002
1568.38	0.179862
1567.9	0.184153
1567.41	0.186176
1566.93	0.187038
1566.45	0.187511
1565.97	0.186089
1565.48	0.182668
1565	0.180586
1564.52	0.182613
1564.04	0.185819
1563.55	0.186445
1563.07	0.18615
1562.59	0.186887
1562.11	0.187096
1561.63	0.185234
1561.14	0.183598
1560.66	0.18451
1560.18	0.186615
1559.7	0.182235
1559.21	0.175131
1558.73	0.172377
1558.25	0.170975
1557.77	0.169344
1557.29	0.173004
1556.8	0.180784
1556.32	0.186919
1555.84	0.188005
1555.36	0.185362
1554.87	0.182941
1554.39	0.183051
1553.91	0.184143
1553.43	0.184426
1552.94	0.18566
1552.46	0.187908
1551.98	0.189192
1551.5	0.188591
1551.02	0.187808
1550.53	0.187694
1550.05	0.187525
1549.57	0.187848
1549.09	0.189739
1548.6	0.191285
1548.12	0.190366
1547.64	0.187775
1547.16	0.186341
1546.67	0.186373
1546.19	0.186066
1545.71	0.185793
1545.23	0.187517
1544.75	0.189048
1544.26	0.185779
1543.78	0.18143
1543.3	0.18123
1542.82	0.185242
1542.33	0.188683
1541.85	0.186189
1541.37	0.183003
1540.89	0.18397
1540.41	0.185581
1539.92	0.183648
1539.44	0.177633
1538.96	0.174105
1538.48	0.178124
1537.99	0.185144
1537.51	0.190288
1537.03	0.191193
1536.55	0.188406
1536.06	0.185942
1535.58	0.187236
1535.1	0.189491
1534.62	0.188758
1534.14	0.186345
1533.65	0.187034
1533.17	0.190378
1532.69	0.189372
1532.21	0.185961
1531.72	0.184826
1531.24	0.186727
1530.76	0.189073
1530.28	0.190676
1529.8	0.192211
1529.31	0.192306
1528.83	0.189495
1528.35	0.186923
1527.87	0.188295
1527.38	0.190813
1526.9	0.189317
1526.42	0.186424
1525.94	0.186443
1525.45	0.187675
1524.97	0.185256
1524.49	0.183814
1524.01	0.188131
1523.53	0.193205
1523.04	0.191058
1522.56	0.182026
1522.08	0.178941
1521.6	0.184646
1521.11	0.186533
1520.63	0.179495
1520.15	0.179819
1519.67	0.188407
1519.18	0.191637
1518.7	0.188058
1518.22	0.186727
1517.74	0.192124
1517.26	0.194073
1516.77	0.181685
1516.29	0.173745
1515.81	0.182654
1515.33	0.195225
1514.84	0.196225
1514.36	0.188455
1513.88	0.18736
1513.4	0.1937
1512.92	0.19623
1512.43	0.189622
1511.95	0.183087
1511.47	0.185803
1510.99	0.190588
1510.5	0.190812
1510.02	0.188432
1509.54	0.186946
1509.06	0.186202
1508.57	0.185303
1508.09	0.185746
1507.61	0.186784
1507.13	0.182577
1506.65	0.17238
1506.16	0.169393
1505.68	0.178745
1505.2	0.187921
1504.72	0.188388
1504.23	0.187328
1503.75	0.190158
1503.27	0.195217
1502.79	0.197711
1502.31	0.195729
1501.82	0.192707
1501.34	0.19176
1500.86	0.192959
1500.38	0.194553
1499.89	0.194856
1499.41	0.193125
1498.93	0.18989
1498.45	0.188981
1497.96	0.192377
1497.48	0.19558
1497	0.196241
1496.52	0.194139
1496.04	0.190921
1495.55	0.191152
1495.07	0.19441
1494.59	0.197866
1494.11	0.199755
1493.62	0.198773
1493.14	0.196632
1492.66	0.196968
1492.18	0.199964
1491.69	0.201853
1491.21	0.199592
1490.73	0.19531
1490.25	0.194003
1489.77	0.196753
1489.28	0.198756
1488.8	0.198317
1488.32	0.198265
1487.84	0.199785
1487.35	0.201435
1486.87	0.202014
1486.39	0.203224
1485.91	0.205839
1485.43	0.207666
1484.94	0.207115
1484.46	0.206139
1483.98	0.207767
1483.5	0.211375
1483.01	0.213599
1482.53	0.213208
1482.05	0.212184
1481.57	0.212292
1481.08	0.213639
1480.6	0.216524
1480.12	0.221395
1479.64	0.226769
1479.16	0.230721
1478.67	0.233892
1478.19	0.238455
1477.71	0.243463
1477.23	0.245732
1476.74	0.245808
1476.26	0.250521
1475.78	0.265219
1475.3	0.278093
1474.82	0.281991
1474.33	0.282447
1473.85	0.286149
1473.37	0.29588
1472.89	0.304726
1472.4	0.307394
1471.92	0.306323
1471.44	0.305073
1470.96	0.305547
1470.47	0.30678
1469.99	0.307142
1469.51	0.305431
1469.03	0.301878
1468.55	0.298465
1468.06	0.296093
1467.58	0.294179
1467.1	0.29239
1466.62	0.290391
1466.13	0.28723
1465.65	0.282578
1465.17	0.278119
1464.69	0.277647
1464.2	0.280561
1463.72	0.281666
1463.24	0.280561
1462.76	0.278367
1462.28	0.274934
1461.79	0.270783
1461.31	0.268107
1460.83	0.267679
1460.35	0.266492
1459.86	0.261375
1459.38	0.253813
1458.9	0.248975
1458.42	0.250427
1457.94	0.253281
1457.45	0.251736
1456.97	0.246451
1456.49	0.244724
1456.01	0.249833
1455.52	0.251971
1455.04	0.251059
1454.56	0.250256
1454.08	0.251018
1453.59	0.251251
1453.11	0.248545
1452.63	0.243719
1452.15	0.241175
1451.67	0.243953
1451.18	0.247331
1450.7	0.246071
1450.22	0.241385
1449.74	0.238908
1449.25	0.239563
1448.77	0.238649
1448.29	0.234081
1447.81	0.230964
1447.32	0.233809
1446.84	0.237004
1446.36	0.235827
1445.88	0.233562
1445.4	0.234245
1444.91	0.235986
1444.43	0.234763
1443.95	0.232411
1443.47	0.232971
1442.98	0.234946
1442.5	0.233767
1442.02	0.230615
1441.54	0.230325
1441.06	0.232665
1440.57	0.232668
1440.09	0.229846
1439.61	0.228705
1439.13	0.230112
1438.64	0.22982
1438.16	0.226937
1437.68	0.225642
1437.2	0.228007
1436.71	0.230147
1436.23	0.226008
1435.75	0.223865
1435.27	0.22703
1434.79	0.230782
1434.3	0.231707
1433.82	0.230774
1433.34	0.231051
1432.86	0.232
1432.37	0.231135
1431.89	0.229016
1431.41	0.228295
1430.93	0.229164
1430.45	0.22973
1429.96	0.22853
1429.48	0.225857
1429	0.223655
1428.52	0.223629
1428.03	0.225884
1427.55	0.228068
1427.07	0.227277
1426.59	0.224699
1426.1	0.223856
1425.62	0.224838
1425.14	0.224115
1424.66	0.220777
1424.18	0.217873
1423.69	0.217605
1423.21	0.218066
1422.73	0.21773
1422.25	0.218598
1421.76	0.220978
1421.28	0.220895
1420.8	0.216951
1420.32	0.213687
1419.83	0.214392
1419.35	0.216638
1418.87	0.212055
1418.39	0.20695
1417.91	0.208217
1417.42	0.213704
1416.94	0.21718
1416.46	0.215032
1415.98	0.212178
1415.49	0.212578
1415.01	0.21443
1414.53	0.214222
1414.05	0.212327
1413.57	0.211197
1413.08	0.211344
1412.6	0.211619
1412.12	0.211903
1411.64	0.212991
1411.15	0.2141
1410.67	0.213201
1410.19	0.210603
1409.71	0.20917
1409.22	0.210826
1408.74	0.213672
1408.26	0.214433
1407.78	0.213218
1407.3	0.21288
1406.81	0.214715
1406.33	0.216473
1405.85	0.216351
1405.37	0.215729
1404.88	0.217421
1404.4	0.220962
1403.92	0.222926
1403.44	0.222603
1402.96	0.222127
1402.47	0.223424
1401.99	0.226273
1401.51	0.22924
1401.03	0.23165
1400.54	0.234015
1400.06	0.236966
1399.58	0.240434
1399.1	0.244042
1398.61	0.248481
1398.13	0.255026
1397.65	0.262587
1397.17	0.268109
1396.69	0.270234
1396.2	0.272276
1395.72	0.277909
1395.24	0.284233
1394.76	0.284438
1394.27	0.278125
1393.79	0.273829
1393.31	0.273524
1392.83	0.270367
1392.34	0.262419
1391.86	0.255801
1391.38	0.255899
1390.9	0.258027
1390.42	0.255234
1389.93	0.249652
1389.45	0.248353
1388.97	0.251388
1388.49	0.252741
1388	0.251248
1387.52	0.252211
1387.04	0.259192
1386.56	0.266637
1386.08	0.271898
1385.59	0.278833
1385.11	0.289149
1384.63	0.300123
1384.15	0.310579
1383.66	0.323167
1383.18	0.338444
1382.7	0.353967
1382.22	0.370755
1381.73	0.392525
1381.25	0.416414
1380.77	0.43344
1380.29	0.441288
1379.81	0.445665
1379.32	0.448237
1378.84	0.445047
1378.36	0.435982
1377.88	0.425318
1377.39	0.415165
1376.91	0.405304
1376.43	0.396338
1375.95	0.387936
1375.47	0.377485
1374.98	0.365007
1374.5	0.356183
1374.02	0.355243
1373.54	0.358403
1373.05	0.358729
1372.57	0.356785
1372.09	0.357077
1371.61	0.359669
1371.12	0.362296
1370.64	0.366765
1370.16	0.376622
1369.68	0.3891
1369.2	0.396195
1368.71	0.395741
1368.23	0.395799
1367.75	0.40208
1367.27	0.410693
1366.78	0.41644
1366.3	0.420471
1365.82	0.425354
1365.34	0.428869
1364.85	0.427461
1364.37	0.422204
1363.89	0.415661
1363.41	0.407898
1362.93	0.398274
1362.44	0.387275
1361.96	0.374463
1361.48	0.359308
1361	0.344771
1360.51	0.335588
1360.03	0.329946
1359.55	0.321522
1359.07	0.309729
1358.59	0.298749
1358.1	0.290235
1357.62	0.281349
1357.14	0.271482
1356.66	0.264037
1356.17	0.259921
1355.69	0.255382
1355.21	0.248928
1354.73	0.244121
1354.24	0.242819
1353.76	0.241109
1353.28	0.236273
1352.8	0.231383
1352.32	0.229442
1351.83	0.228217
1351.35	0.224854
1350.87	0.221415
1350.39	0.220988
1349.9	0.221923
1349.42	0.22074
1348.94	0.21808
1348.46	0.216993
1347.98	0.217471
1347.49	0.217156
1347.01	0.215796
1346.53	0.21483
1346.05	0.214164
1345.56	0.212808
1345.08	0.211526
1344.6	0.21153
1344.12	0.211646
1343.63	0.210225
1343.15	0.208703
1342.67	0.2097
1342.19	0.212063
1341.71	0.211782
1341.22	0.208176
1340.74	0.205013
1340.26	0.205819
1339.78	0.208547
1339.29	0.20859
1338.81	0.205562
1338.33	0.20307
1337.85	0.203398
1337.36	0.204585
1336.88	0.204309
1336.4	0.203539
1335.92	0.204576
1335.44	0.20641
1334.95	0.205895
1334.47	0.203066
1333.99	0.201674
1333.51	0.203418
1333.02	0.204723
1332.54	0.202699
1332.06	0.20048
1331.58	0.202516
1331.1	0.206895
1330.61	0.207894
1330.13	0.204638
1329.65	0.201904
1329.17	0.202281
1328.68	0.203201
1328.2	0.202721
1327.72	0.202614
1327.24	0.203841
1326.75	0.203942
1326.27	0.201634
1325.79	0.199801
1325.31	0.200816
1324.83	0.202534
1324.34	0.202009
1323.86	0.200334
1323.38	0.200419
1322.9	0.202312
1322.41	0.203905
1321.93	0.204472
1321.45	0.204556
1320.97	0.203818
1320.49	0.20195
1320	0.200527
1319.52	0.201184
1319.04	0.202929
1318.56	0.203438
1318.07	0.2025
1317.59	0.201827
1317.11	0.202067
1316.63	0.202498
1316.14	0.20293
1315.66	0.203852
1315.18	0.204849
1314.7	0.204731
1314.22	0.203379
1313.73	0.202145
1313.25	0.201965
1312.77	0.202485
1312.29	0.203168
1311.8	0.204139
1311.32	0.205561
1310.84	0.206936
1310.36	0.207602
1309.87	0.20778
1309.39	0.208559
1308.91	0.210434
1308.43	0.212377
1307.95	0.213052
1307.46	0.212898
1306.98	0.213663
1306.5	0.215631
1306.02	0.216883
1305.53	0.216214
1305.05	0.215184
1304.57	0.215711
1304.09	0.217012
1303.61	0.21706
1303.12	0.216305
1302.64	0.217251
1302.16	0.220312
1301.68	0.222618
1301.19	0.221846
1300.71	0.219335
1300.23	0.218217
1299.75	0.219572
1299.26	0.221698
1298.78	0.222442
1298.3	0.221444
1297.82	0.22016
1297.34	0.220092
1296.85	0.2213
1296.37	0.222599
1295.89	0.2232
1295.41	0.22352
1294.92	0.224273
1294.44	0.225718
1293.96	0.228013
1293.48	0.23124
1293	0.23458
1292.51	0.236815
1292.03	0.238359
1291.55	0.241112
1291.07	0.245445
1290.58	0.249194
1290.1	0.251049
1289.62	0.252831
1289.14	0.256422
1288.65	0.26048
1288.17	0.262563
1287.69	0.263134
1287.21	0.264677
1286.73	0.267733
1286.24	0.270333
1285.76	0.271006
1285.28	0.270341
1284.8	0.269862
1284.31	0.270783
1283.83	0.273281
1283.35	0.275745
1282.87	0.275704
1282.38	0.272998
1281.9	0.270742
1281.42	0.271748
1280.94	0.275226
1280.46	0.278329
1279.97	0.279772
1279.49	0.280349
1279.01	0.281186
1278.53	0.283165
1278.04	0.286706
1277.56	0.290442
1277.08	0.291847
1276.6	0.291024
1276.12	0.291556
1275.63	0.295601
1275.15	0.300558
1274.67	0.303249
1274.19	0.304755
1273.7	0.307684
1273.22	0.311178
1272.74	0.31289
1272.26	0.313831
1271.77	0.316673
1271.29	0.320642
1270.81	0.322918
1270.33	0.324217
1269.85	0.327464
1269.36	0.331854
1268.88	0.333797
1268.4	0.333865
1267.92	0.336737
1267.43	0.343163
1266.95	0.347838
1266.47	0.347737
1265.99	0.347084
1265.51	0.350724
1265.02	0.357027
1264.54	0.36147
1264.06	0.364053
1263.58	0.368422
1263.09	0.375448
1262.61	0.382362
1262.13	0.387537
1261.65	0.392423
1261.16	0.398305
1260.68	0.40416
1260.2	0.408716
1259.72	0.412674
1259.24	0.417644
1258.75	0.424002
1258.27	0.430783
1257.79	0.436883
1257.31	0.441964
1256.82	0.446756
1256.34	0.452805
1255.86	0.461261
1255.38	0.471243
1254.89	0.480111
1254.41	0.486408
1253.93	0.492407
1253.45	0.501951
1252.97	0.515123
1252.48	0.527232
1252	0.535069
1251.52	0.542437
1251.04	0.555324
1250.55	0.572878
1250.07	0.587947
1249.59	0.598109
1249.11	0.610128
1248.63	0.629342
1248.14	0.650833
1247.66	0.666807
1247.18	0.679428
1246.7	0.697154
1246.21	0.720356
1245.73	0.740834
1245.25	0.757018
1244.77	0.778591
1244.28	0.810405
1243.8	0.841663
1243.32	0.861042
1242.84	0.876823
1242.36	0.90571
1241.87	0.946826
1241.39	0.980741
1240.91	0.998265
1240.43	1.01611
1239.94	1.05083
1239.46	1.09619
1238.98	1.13481
1238.5	1.16454
1238.02	1.19873
1237.53	1.24475
1237.05	1.30054
1236.57	1.36497
1236.09	1.4344
1235.6	1.4944
1235.12	1.53973
1234.64	1.59501
1234.16	1.68455
1233.67	1.79797
1233.19	1.91676
1232.71	2.07491
1232.23	2.30089
1231.75	2.38894
1231.26	2.24338
1230.78	2.22596
1230.3	2.56639
1229.82	3.97917
1229.33	2.60786
1228.85	2.14308
1228.37	2.05648
1227.89	2.10465
1227.4	2.00092
1226.92	1.77716
1226.44	1.61419
1225.96	1.50635
1225.48	1.3957
1224.99	1.27816
1224.51	1.18583
1224.03	1.12504
1223.55	1.07342
1223.06	1.01345
1222.58	0.951638
1222.1	0.899676
1221.62	0.857413
1221.14	0.818012
1220.65	0.778429
1220.17	0.740227
1219.69	0.705366
1219.21	0.675121
1218.72	0.65011
1218.24	0.628569
1217.76	0.606556
1217.28	0.582625
1216.79	0.56033
1216.31	0.543436
1215.83	0.530566
1215.35	0.51718
1214.87	0.50207
1214.38	0.488182
1213.9	0.476993
1213.42	0.466147
1212.94	0.453997
1212.45	0.442628
1211.97	0.434065
1211.49	0.426592
1211.01	0.417813
1210.53	0.4088
1210.04	0.401527
1209.56	0.394572
1209.08	0.385513
1208.6	0.376132
1208.11	0.370424
1207.63	0.368
1207.15	0.364126
1206.67	0.356851
1206.18	0.349408
1205.7	0.344474
1205.22	0.340489
1204.74	0.335456
1204.26	0.330465
1203.77	0.327014
1203.29	0.324068
1202.81	0.320232
1202.33	0.31623
1201.84	0.313081
1201.36	0.31014
1200.88	0.30684
1200.4	0.303928
1199.91	0.301317
1199.43	0.297504
1198.95	0.292884
1198.47	0.290424
1197.99	0.290825
1197.5	0.29027
1197.02	0.285868
1196.54	0.280343
1196.06	0.277783
1195.57	0.277764
1195.09	0.277257
1194.61	0.275812
1194.13	0.274819
1193.65	0.273583
1193.16	0.270648
1192.68	0.267682
1192.2	0.26759
1191.72	0.269531
1191.23	0.269907
1190.75	0.267882
1190.27	0.26601
1189.79	0.26555
1189.3	0.265182
1188.82	0.264346
1188.34	0.26401
1187.86	0.263852
1187.38	0.262349
1186.89	0.260136
1186.41	0.25977
1185.93	0.261559
1185.45	0.263002
1184.96	0.263006
1184.48	0.263412
1184	0.265533
1183.52	0.268165
1183.04	0.270028
1182.55	0.271393
1182.07	0.27254
1181.59	0.273213
1181.11	0.274095
1180.62	0.276144
1180.14	0.278276
1179.66	0.278493
1179.18	0.277295
1178.69	0.276652
1178.21	0.275899
1177.73	0.272614
1177.25	0.267596
1176.77	0.264573
1176.28	0.264579
1175.8	0.264662
1175.32	0.262819
1174.84	0.260123
1174.35	0.257058
1173.87	0.252562
1173.39	0.247932
1172.91	0.246608
1172.42	0.248317
1171.94	0.248159
1171.46	0.243944
1170.98	0.239856
1170.5	0.23977
1170.01	0.24161
1169.53	0.241727
1169.05	0.240708
1168.57	0.240579
1168.08	0.240116
1167.6	0.237463
1167.12	0.234284
1166.64	0.232792
1166.16	0.231646
1165.67	0.229231
1165.19	0.227835
1164.71	0.229621
1164.23	0.231323
1163.74	0.228699
1163.26	0.224186
1162.78	0.22354
1162.3	0.226318
1161.81	0.226363
1161.33	0.221904
1160.85	0.218491
1160.37	0.220319
1159.89	0.224359
1159.4	0.225383
1158.92	0.222695
1158.44	0.219344
1157.96	0.21775
1157.47	0.218166
1156.99	0.219135
1156.51	0.218281
1156.03	0.214908
1155.55	0.212081
1155.06	0.213434
1154.58	0.21766
1154.1	0.219478
1153.62	0.216758
1153.13	0.212905
1152.65	0.211373
1152.17	0.211599
1151.69	0.211754
1151.2	0.211935
1150.72	0.212551
1150.24	0.212547
1149.76	0.211434
1149.28	0.210648
1148.79	0.211021
1148.31	0.211213
1147.83	0.210409
1147.35	0.210152
1146.86	0.211532
1146.38	0.212796
1145.9	0.212004
1145.42	0.210148
1144.93	0.209353
1144.45	0.209465
1143.97	0.208815
1143.49	0.207301
1143.01	0.206505
1142.52	0.207149
1142.04	0.208173
1141.56	0.208298
1141.08	0.207469
1140.59	0.206762
1140.11	0.207129
1139.63	0.208004
1139.15	0.207554
1138.67	0.205257
1138.18	0.203462
1137.7	0.20458
1137.22	0.207395
1136.74	0.208525
1136.25	0.207412
1135.77	0.206768
1135.29	0.207736
1134.81	0.208052
1134.32	0.206222
1133.84	0.204312
1133.36	0.204625
1132.88	0.206361
1132.4	0.207519
1131.91	0.207857
1131.43	0.207911
1130.95	0.207245
1130.47	0.205893
1129.98	0.205537
1129.5	0.207001
1129.02	0.208402
1128.54	0.207976
1128.06	0.20697
1127.57	0.207346
1127.09	0.20844
1126.61	0.208484
1126.13	0.207808
1125.64	0.207777
1125.16	0.207859
1124.68	0.20662
1124.2	0.204662
1123.71	0.203763
1123.23	0.203959
1122.75	0.204124
1122.27	0.204533
1121.79	0.206093
1121.3	0.207765
1120.82	0.207693
1120.34	0.20636
1119.86	0.205759
1119.37	0.206023
1118.89	0.205993
1118.41	0.206586
1117.93	0.209718
1117.44	0.213688
1116.96	0.213834
1116.48	0.209341
1116	0.205567
1115.52	0.207085
1115.03	0.211715
1114.55	0.21405
1114.07	0.212755
1113.59	0.211311
1113.1	0.212471
1112.62	0.215114
1112.14	0.216693
1111.66	0.216634
1111.18	0.216461
1110.69	0.217586
1110.21	0.219616
1109.73	0.220701
1109.25	0.219756
1108.76	0.218109
1108.28	0.218014
1107.8	0.219616
1107.32	0.220642
1106.83	0.219527
1106.35	0.21751
1105.87	0.216715
1105.39	0.217571
1104.91	0.218976
1104.42	0.219865
1103.94	0.219651
1103.46	0.21819
1102.98	0.216334
1102.49	0.215475
1102.01	0.215641
1101.53	0.215291
1101.05	0.213877
1100.57	0.213119
1100.08	0.21427
1099.6	0.215835
1099.12	0.215723
1098.64	0.214411
1098.15	0.213886
1097.67	0.214488
1097.19	0.215073
1096.71	0.215363
1096.22	0.215753
1095.74	0.215551
1095.26	0.214001
1094.78	0.212451
1094.3	0.212829
1093.81	0.214439
1093.33	0.215009
1092.85	0.214547
1092.37	0.214994
1091.88	0.216278
1091.4	0.216274
1090.92	0.214943
1090.44	0.214711
1089.95	0.216077
1089.47	0.216785
1088.99	0.216371
1088.51	0.217367
1088.03	0.220296
1087.54	0.221834
1087.06	0.220428
1086.58	0.219456
1086.1	0.221578
1085.61	0.223973
1085.13	0.223199
1084.65	0.221221
1084.17	0.222002
1083.69	0.224903
1083.2	0.226126
1082.72	0.224942
1082.24	0.223748
1081.76	0.223609
1081.27	0.224124
1080.79	0.226004
1080.31	0.229245
1079.83	0.230435
1079.34	0.22703
1078.86	0.222753
1078.38	0.223187
1077.9	0.227511
1077.42	0.229895
1076.93	0.228581
1076.45	0.227308
1075.97	0.227813
1075.49	0.22764
1075	0.226174
1074.52	0.226455
1074.04	0.229375
1073.56	0.231864
1073.08	0.232594
1072.59	0.233617
1072.11	0.234791
1071.63	0.232907
1071.15	0.228676
1070.66	0.227726
1070.18	0.231918
1069.7	0.235989
1069.22	0.236221
1068.73	0.236258
1068.25	0.239407
1067.77	0.242095
1067.29	0.24089
1066.81	0.239797
1066.32	0.243203
1065.84	0.246969
1065.36	0.244901
1064.88	0.240331
1064.39	0.241556
1063.91	0.248364
1063.43	0.252357
1062.95	0.25045
1062.46	0.248989
1061.98	0.252559
1061.5	0.257493
1061.02	0.25927
1060.54	0.259523
1060.05	0.261592
1059.57	0.264622
1059.09	0.266403
1058.61	0.268036
1058.12	0.271804
1057.64	0.277091
1057.16	0.281758
1056.68	0.285387
1056.2	0.288632
1055.71	0.291514
1055.23	0.294523
1054.75	0.29916
1054.27	0.30538
1053.78	0.31074
1053.3	0.314165
1052.82	0.318182
1052.34	0.325031
1051.85	0.333246
1051.37	0.340641
1050.89	0.348276
1050.41	0.357983
1049.93	0.368009
1049.44	0.375322
1048.96	0.381184
1048.48	0.389847
1048	0.401884
1047.51	0.413291
1047.03	0.422175
1046.55	0.431804
1046.07	0.444965
1045.58	0.459575
1045.1	0.472528
1044.62	0.484735
1044.14	0.498481
1043.66	0.512867
1043.17	0.526498
1042.69	0.542352
1042.21	0.564047
1041.73	0.588135
1041.24	0.60658
1040.76	0.618965
1040.28	0.634546
1039.8	0.65842
1039.32	0.683121
1038.83	0.698729
1038.35	0.707192
1037.87	0.717487
1037.39	0.730471
1036.9	0.738753
1036.42	0.739914
1035.94	0.740177
1035.46	0.742868
1034.97	0.742527
1034.49	0.733934
1034.01	0.72017
1033.53	0.706857
1033.05	0.694153
1032.56	0.679447
1032.08	0.663946
1031.6	0.651464
1031.12	0.642311
1030.63	0.632465
1030.15	0.618785
1029.67	0.603045
1029.19	0.589752
1028.71	0.581004
1028.22	0.57427
1027.74	0.565564
1027.26	0.555038
1026.78	0.546974
1026.29	0.54287
1025.81	0.537764
1025.33	0.527064
1024.85	0.514174
1024.36	0.505619
1023.88	0.50074
1023.4	0.492591
1022.92	0.479236
1022.44	0.466643
1021.95	0.458641
1021.47	0.451518
1020.99	0.441357
1020.51	0.430465
1020.02	0.422022
1019.54	0.413928
1019.06	0.403268
1018.58	0.392516
1018.09	0.385598
1017.61	0.380761
1017.13	0.373337
1016.65	0.363608
1016.17	0.356177
1015.68	0.352415
1015.2	0.348746
1014.72	0.342582
1014.24	0.335651
1013.75	0.330527
1013.27	0.327118
1012.79	0.32366
1012.31	0.31895
1011.83	0.313047
1011.34	0.307182
1010.86	0.302957
1010.38	0.300696
1009.9	0.299019
1009.41	0.296855
1008.93	0.29471
1008.45	0.292842
1007.97	0.290047
1007.48	0.285895
1007	0.282192
1006.52	0.280286
1006.04	0.278938
1005.56	0.276866
1005.07	0.275292
1004.59	0.275431
1004.11	0.275706
1003.63	0.274509
1003.14	0.273682
1002.66	0.275485
1002.18	0.277868
1001.7	0.276965
1001.22	0.273365
1000.73	0.271416
1000.25	0.272565
999.768	0.273823
999.286	0.273379
998.804	0.273374
998.321	0.275651
997.839	0.27844
997.357	0.279227
996.875	0.278372
996.392	0.277831
995.91	0.278453
995.428	0.28034
994.946	0.283969
994.463	0.288976
993.981	0.293205
993.499	0.295142
993.016	0.296394
992.534	0.299684
992.052	0.30492
991.57	0.309002
991.087	0.30994
990.605	0.309419
990.123	0.310171
989.64	0.31187
989.158	0.311348
988.676	0.307116
988.194	0.301749
987.711	0.29843
987.229	0.296647
986.747	0.293583
986.264	0.28851
985.782	0.282983
985.3	0.277359
984.818	0.270621
984.335	0.263805
983.853	0.259773
983.371	0.25872
982.888	0.257456
982.406	0.254202
981.924	0.250688
981.442	0.24801
980.959	0.244235
980.477	0.2384
979.995	0.233315
979.513	0.231487
979.03	0.231173
978.548	0.229512
978.066	0.227011
977.583	0.225827
977.101	0.225913
976.619	0.225844
976.137	0.225413
975.654	0.224607
975.172	0.22237
974.69	0.219411
974.207	0.219436
973.725	0.223768
973.243	0.227396
972.761	0.225205
972.278	0.219949
971.796	0.218063
971.314	0.219914
970.831	0.220561
970.349	0.219303
969.867	0.221069
969.385	0.226941
968.902	0.230851
968.42	0.229096
967.938	0.226957
967.455	0.230523
966.973	0.237302
966.491	0.240565
966.009	0.239846
965.526	0.240209
965.044	0.243163
964.562	0.244918
964.08	0.243477
963.597	0.241372
963.115	0.240336
962.633	0.238524
962.15	0.234736
961.668	0.231174
961.186	0.22968
960.704	0.228465
960.221	0.225292
959.739	0.221688
959.257	0.220958
958.774	0.223231
958.292	0.225044
957.81	0.223779
957.328	0.2203
956.845	0.21698
956.363	0.21508
955.881	0.214539
955.398	0.214935
954.916	0.216035
954.434	0.217977
953.952	0.220886
953.469	0.223853
952.987	0.225024
952.505	0.223839
952.023	0.2223
951.54	0.222656
951.058	0.22466
950.576	0.226547
950.093	0.22793
949.611	0.229716
949.129	0.231727
948.647	0.232788
948.164	0.233052
947.682	0.233728
947.2	0.234552
946.717	0.234162
946.235	0.233236
945.753	0.23431
945.271	0.237767
944.788	0.240765
944.306	0.241318
943.824	0.240826
943.341	0.241018
942.859	0.241226
942.377	0.240431
941.895	0.239504
941.412	0.239399
940.93	0.239199
940.448	0.237778
939.965	0.235626
939.483	0.233443
939.001	0.23095
938.519	0.228513
938.036	0.227547
937.554	0.22781
937.072	0.226891
936.59	0.22401
936.107	0.221587
935.625	0.221438
935.143	0.22226
934.66	0.222579
934.178	0.223
933.696	0.223539
933.214	0.222436
932.731	0.220087
932.249	0.220202
931.767	0.223815
931.284	0.226259
930.802	0.224412
930.32	0.222594
929.838	0.226124
929.355	0.232639
928.873	0.23551
928.391	0.234063
927.908	0.233691
927.426	0.236736
926.944	0.240253
926.462	0.24213
925.979	0.243511
925.497	0.244557
925.015	0.243256
924.532	0.239711
924.05	0.236936
923.568	0.236317
923.086	0.236224
922.603	0.235477
922.121	0.234594
921.639	0.233407
921.157	0.231094
920.674	0.22862
920.192	0.227673
919.71	0.227337
919.227	0.225561
918.745	0.223515
918.263	0.224359
917.781	0.227848
917.298	0.230191
916.816	0.229531
916.334	0.228061
915.851	0.228156
915.369	0.22983
914.887	0.23243
914.405	0.235554
913.922	0.238108
913.44	0.239257
912.958	0.24007
912.475	0.241782
911.993	0.243447
911.511	0.243952
911.029	0.244763
910.546	0.247419
910.064	0.250231
909.582	0.251161
909.1	0.251762
908.617	0.254075
908.135	0.256075
907.653	0.25511
907.17	0.253551
906.688	0.255084
906.206	0.257806
905.724	0.257651
905.241	0.256241
904.759	0.258232
904.277	0.262146
903.794	0.262281
903.312	0.259106
902.83	0.25881
902.348	0.262211
901.865	0.262947
901.383	0.258781
900.901	0.255793
900.418	0.25797
899.936	0.260857
899.454	0.259142
898.972	0.25445
898.489	0.25115
898.007	0.24982
897.525	0.249226
897.042	0.249747
896.56	0.250938
896.078	0.249844
895.596	0.245299
895.113	0.240409
894.631	0.237863
894.149	0.236533
893.667	0.234817
893.184	0.233442
892.702	0.232786
892.22	0.231317
891.737	0.228895
891.255	0.227746
890.773	0.228252
890.291	0.22755
889.808	0.224364
889.326	0.221394
888.844	0.220617
888.361	0.220274
887.879	0.218576
887.397	0.216563
886.915	0.215439
886.432	0.214645
885.95	0.214363
885.468	0.215909
884.985	0.218002
884.503	0.21693
884.021	0.212616
883.539	0.209738
883.056	0.210481
882.574	0.211354
882.092	0.209783
881.609	0.208738
881.127	0.211171
880.645	0.214294
880.163	0.214073
879.68	0.211827
879.198	0.211224
878.716	0.211829
878.234	0.210503
877.751	0.207462
877.269	0.206056
876.787	0.207107
876.304	0.207699
875.822	0.205645
875.34	0.202415
874.858	0.201265
874.375	0.203762
873.893	0.208227
873.411	0.21081
872.928	0.209023
872.446	0.204956
871.964	0.203315
871.482	0.205681
870.999	0.208496
870.517	0.207736
870.035	0.203423
869.552	0.198519
869.07	0.195659
868.588	0.195741
868.106	0.197986
867.623	0.200305
867.141	0.20096
866.659	0.200839
866.177	0.20232
865.694	0.205361
865.212	0.207059
864.73	0.205723
864.247	0.20295
863.765	0.201004
863.283	0.200593
862.801	0.201686
862.318	0.204076
861.836	0.206319
861.354	0.206368
860.871	0.204288
860.389	0.20242
859.907	0.202246
859.425	0.203159
858.942	0.204263
858.46	0.204888
857.978	0.203628
857.495	0.199988
857.013	0.196789
856.531	0.197311
856.049	0.200493
855.566	0.202547
855.084	0.202896
854.602	0.204336
854.119	0.206943
853.637	0.207118
853.155	0.204165
852.673	0.202426
852.19	0.204628
851.708	0.207922
851.226	0.208799
850.744	0.208203
850.261	0.208447
849.779	0.208952
849.297	0.208462
848.814	0.208219
848.332	0.209564
847.85	0.211031
847.368	0.210926
846.885	0.210332
846.403	0.210705
845.921	0.210953
845.438	0.209725
844.956	0.208439
844.474	0.208992
843.992	0.210423
843.509	0.210928
843.027	0.211308
842.545	0.213345
842.062	0.215846
841.58	0.215705
841.098	0.212516
840.616	0.209245
840.133	0.20847
839.651	0.209772
839.169	0.211012
838.686	0.211065
838.204	0.210683
837.722	0.211004
837.24	0.211735
836.757	0.211474
836.275	0.210298
835.793	0.210609
835.311	0.213779
834.828	0.217488
834.346	0.218812
833.864	0.218735
833.381	0.220281
832.899	0.222972
832.417	0.223598
831.935	0.222355
831.452	0.222859
830.97	0.225499
830.488	0.2261
830.005	0.223569
829.523	0.222954
829.041	0.227273
828.559	0.231482
828.076	0.229301
827.594	0.222885
827.112	0.219738
826.629	0.222461
826.147	0.226948
825.665	0.229492
825.183	0.230594
824.7	0.231741
824.218	0.232837
823.736	0.233592
823.254	0.234154
822.771	0.233795
822.289	0.231576
821.807	0.228395
821.324	0.226015
820.842	0.2243
820.36	0.222084
819.878	0.220008
819.395	0.219553
818.913	0.220099
818.431	0.219952
817.948	0.219533
817.466	0.219905
816.984	0.219164
816.502	0.214747
816.019	0.208904
815.537	0.206818
815.055	0.208477
814.572	0.208548
814.09	0.20543
813.608	0.20394
813.126	0.206798
812.643	0.2092
812.161	0.206521
811.679	0.202
811.196	0.201063
810.714	0.202906
810.232	0.203283
809.75	0.201962
809.267	0.201458
808.785	0.201199
808.303	0.199586
807.821	0.199095
807.338	0.202415
806.856	0.205835
806.374	0.204137
805.891	0.200379
805.409	0.201584
804.927	0.206174
804.445	0.205346
803.962	0.197945
803.48	0.193716
802.998	0.19771
802.515	0.20263
802.033	0.200957
801.551	0.196046
801.069	0.194792
800.586	0.196731
800.104	0.197669
799.622	0.198055
799.139	0.200103
798.657	0.201389
798.175	0.198661
797.693	0.194639
797.21	0.193977
796.728	0.195665
796.246	0.195887
795.763	0.194609
795.281	0.1939
794.799	0.193255
794.317	0.192076
793.834	0.192757
793.352	0.195499
792.87	0.195147
792.388	0.189296
791.905	0.18449
791.423	0.186885
790.941	0.191688
790.458	0.191132
789.976	0.187429
789.494	0.187483
789.012	0.189753
788.529	0.187369
788.047	0.182149
787.565	0.182196
787.082	0.187314
786.6	0.189269
786.118	0.186116
785.636	0.185168
785.153	0.188948
784.671	0.19066
784.189	0.186738
783.706	0.18299
783.224	0.184048
782.742	0.185886
782.26	0.184036
781.777	0.181235
781.295	0.181557
780.813	0.184045
780.331	0.186039
779.848	0.187231
779.366	0.187325
778.884	0.185117
778.401	0.182322
777.919	0.182547
777.437	0.184855
776.955	0.184159
776.472	0.180264
775.99	0.179256
775.508	0.183589
775.025	0.188239
774.543	0.188625
774.061	0.186221
773.579	0.18385
773.096	0.181817
772.614	0.180944
772.132	0.182891
771.649	0.185641
771.167	0.184984
770.685	0.182124
770.203	0.182435
769.72	0.185267
769.238	0.184169
768.756	0.178549
768.273	0.176033
767.791	0.180215
767.309	0.184593
766.827	0.183583
766.344	0.180856
765.862	0.181809
765.38	0.185303
764.898	0.187017
764.415	0.185873
763.933	0.183446
763.451	0.181962
762.968	0.18457
762.486	0.191363
762.004	0.194817
761.522	0.188148
761.039	0.178177
760.557	0.177557
760.075	0.185492
759.592	0.188128
759.11	0.180828
758.628	0.176124
758.146	0.182347
757.663	0.19001
757.181	0.188118
756.699	0.181041
756.216	0.17871
755.734	0.180836
755.252	0.181985
754.77	0.183552
754.287	0.188422
753.805	0.191682
753.323	0.188158
752.84	0.183366
752.358	0.184728
751.876	0.188764
751.394	0.188044
750.911	0.18432
750.429	0.183881
749.947	0.185359
749.465	0.183477
748.982	0.180638
748.5	0.182262
748.018	0.185256
747.535	0.182886
747.053	0.177971
746.571	0.179355
746.089	0.186334
745.606	0.189557
745.124	0.186616
744.642	0.184484
744.159	0.186429
743.677	0.187122
743.195	0.183603
742.713	0.180576
742.23	0.18131
741.748	0.182426
741.266	0.18094
740.783	0.180153
740.301	0.18333
739.819	0.186986
739.337	0.185491
738.854	0.179083
738.372	0.173911
737.89	0.174421
737.408	0.178765
736.925	0.182605
736.443	0.185054
735.961	0.188558
735.478	0.192675
734.996	0.191809
734.514	0.183697
734.032	0.176165
733.549	0.177631
733.067	0.185115
732.585	0.188048
732.102	0.184109
731.62	0.18178
731.138	0.184022
730.656	0.183444
730.173	0.177494
729.691	0.17551
729.209	0.182884
728.726	0.189712
728.244	0.185654
727.762	0.177647
727.28	0.178059
726.797	0.185567
726.315	0.189183
725.833	0.186667
725.35	0.185341
724.868	0.186755
724.386	0.185797
723.904	0.182856
723.421	0.18404
722.939	0.189064
722.457	0.190722
721.975	0.187714
721.492	0.186151
721.01	0.187274
720.528	0.185477
720.045	0.180132
719.563	0.17969
719.081	0.185318
718.599	0.188504
718.116	0.184838
717.634	0.181071
717.152	0.184154
716.669	0.189428
716.187	0.188568
715.705	0.18306
715.223	0.181509
714.74	0.186289
714.258	0.19103
713.776	0.18986
713.293	0.185044
712.811	0.182336
712.329	0.183395
711.847	0.185417
711.364	0.185644
710.882	0.184658
710.4	0.184414
709.917	0.184624
709.435	0.183395
708.953	0.181129
708.471	0.180859
707.988	0.18314
707.506	0.183608
707.024	0.1795
706.542	0.175242
706.059	0.177616
705.577	0.185717
705.095	0.190592
704.612	0.186751
704.13	0.179398
703.648	0.17698
703.166	0.180135
702.683	0.182478
702.201	0.180538
701.719	0.178891
701.236	0.182621
700.754	0.188212
700.272	0.187499
699.79	0.180384
699.307	0.177101
698.825	0.184633
698.343	0.194694
697.86	0.193997
697.378	0.183532
696.896	0.17739
696.414	0.183518
695.931	0.19226
695.449	0.190533
694.967	0.18005
694.485	0.173125
694.002	0.174802
693.52	0.178638
693.038	0.179017
692.555	0.179981
692.073	0.186986
691.591	0.196076
691.109	0.196792
690.626	0.185226
690.144	0.172115
689.662	0.169829
689.179	0.177642
688.697	0.185176
688.215	0.186922
687.733	0.187548
687.25	0.191206
686.768	0.192865
686.286	0.187099
685.803	0.178741
685.321	0.176368
684.839	0.180753
684.357	0.184339
683.874	0.183058
683.392	0.181078
682.91	0.18143
682.427	0.180792
681.945	0.176466
681.463	0.17192
680.981	0.172466
680.498	0.177009
680.016	0.179336
679.534	0.176379
679.052	0.171465
678.569	0.17069
678.087	0.177079
677.605	0.186825
677.122	0.191522
676.64	0.188739
676.158	0.184301
675.676	0.182549
675.193	0.180979
674.711	0.176357
674.229	0.172579
673.746	0.175784
673.264	0.18407
672.782	0.189402
672.3	0.188883
671.817	0.18723
671.335	0.188656
670.853	0.191352
670.37	0.191727
669.888	0.188386
669.406	0.181989
668.924	0.171712
668.441	0.141331
667.959	0.105171
667.477	0.15762
666.994	0.18188
666.512	0.185376
666.03	0.189497
665.548	0.195588
665.065	0.200669
664.583	0.201867
664.101	0.19983
663.619	0.194814
663.136	0.188554
662.654	0.186457
662.172	0.190693
661.689	0.197841
661.207	0.204287
660.725	0.209623
660.243	0.212278
659.76	0.206868
659.278	0.194154
658.796	0.18707
658.313	0.194772
657.831	0.20911
657.349	0.213326
656.867	0.203749
656.384	0.192964
655.902	0.189307
655.42	0.188893
654.937	0.186976
654.455	0.186821
653.973	0.193063
653.491	0.202803
653.008	0.20845
652.526	0.206856
652.044	0.202
651.562	0.19888
651.079	0.196185
650.597	0.188574
650.115	0.177115
649.632	0.171692
649.15	0.178175
648.668	0.188283
648.186	0.191656
647.703	0.193884
647.221	0.205978
646.739	0.222699
646.256	0.226349
645.774	0.21445
645.292	0.204801
644.81	0.205803
644.327	0.207675
643.845	0.205501
643.363	0.209487
642.88	0.223285
642.398	0.233583
641.916	0.232948
641.434	0.232168
640.951	0.235324
640.469	0.230342
639.987	0.219051
639.504	0.226967
639.022	0.261442
638.54	0.287171
638.058	0.274054
637.575	0.249752
637.093	0.253065
636.611	0.273282
636.129	0.271604
635.646	0.248902
635.164	0.2421
634.682	0.260493
634.199	0.273627
633.717	0.263087
633.235	0.24543
632.753	0.238525
632.27	0.237908
631.788	0.235161
631.306	0.234824
630.823	0.241384
630.341	0.246469
629.859	0.24087
629.377	0.228651
628.894	0.220104
628.412	0.221518
627.93	0.230588
627.447	0.236451
626.965	0.22942
626.483	0.216693
626.001	0.217114
625.518	0.231767
625.036	0.237208
624.554	0.218905
624.071	0.196137
623.589	0.190896
623.107	0.195136
622.625	0.194329
622.142	0.195914
621.66	0.209829
621.178	0.219306
620.696	0.208872
620.213	0.199089
619.731	0.213837
619.249	0.231794
618.766	0.215609
618.284	0.181193
617.802	0.178853
617.32	0.215653
616.837	0.238104
616.355	0.222407
615.873	0.205473
615.39	0.216224
614.908	0.234501
614.426	0.235435
613.944	0.233286
613.461	0.245957
612.979	0.256175
612.497	0.241623
612.014	0.219752
611.532	0.22351
611.05	0.251609
610.568	0.268906
610.085	0.259479
609.603	0.247997
609.121	0.259244
608.639	0.283863
608.156	0.293701
607.674	0.28327
607.192	0.279175
606.709	0.30321
606.227	0.341585
605.745	0.35763
605.263	0.339581
604.78	0.313701
604.298	0.301119
603.816	0.294702
603.333	0.282301
602.851	0.270053
602.369	0.267697
601.887	0.268014
601.404	0.259202
600.922	0.246871
600.44	0.241542
599.957	0.236143
599.475	0.216018
598.993	0.187465
598.511	0.172619
598.028	0.181842
597.546	0.203714
597.064	0.219838
596.581	0.224003
596.099	0.22079
595.617	0.215316
595.135	0.211138
594.652	0.210294
594.17	0.211128
593.688	0.209603
593.206	0.20386
592.723	0.197267
592.241	0.19894
591.759	0.216763
591.276	0.241832
590.794	0.24837
590.312	0.22579
589.83	0.199079
589.347	0.198335
588.865	0.217929
588.383	0.220963
587.9	0.195449
587.418	0.17415
586.936	0.182081
586.454	0.204083
585.971	0.211653
585.489	0.203647
585.007	0.197503
584.524	0.200627
584.042	0.209989
583.56	0.219915
583.078	0.217945
582.595	0.194088
582.113	0.169532
581.631	0.182803
581.148	0.225545
580.666	0.241772
580.184	0.209144
579.702	0.182736
579.219	0.205674
578.737	0.239705
578.255	0.225129
577.773	0.18312
577.29	0.174135
576.808	0.197019
576.326	0.20671
575.843	0.191622
575.361	0.191891
574.879	0.208876
574.397	0.206886
573.914	0.182619
573.432	0.174162
572.95	0.188924
572.467	0.190175
571.985	0.166089
571.503	0.158844
571.021	0.19065
570.538	0.227045
570.056	0.230014
569.574	0.211793
569.091	0.206151
568.609	0.211829
568.127	0.209315
567.645	0.198883
567.162	0.193934
566.68	0.192919
566.198	0.188297
565.716	0.187579
565.233	0.19912
564.751	0.212696
564.269	0.207183
563.786	0.179882
563.304	0.159515
562.822	0.165349
562.34	0.190112
561.857	0.209705
561.375	0.203729
560.893	0.182325
560.41	0.171516
559.928	0.183106
559.446	0.206263
558.964	0.22298
558.481	0.222989
557.999	0.199912
557.517	0.159051
557.034	0.1326
556.552	0.151537
556.07	0.204608
555.588	0.242093
555.105	0.223922
554.623	0.180032
554.141	0.168437
553.658	0.194758
553.176	0.224088
552.694	0.229589
552.212	0.215261
551.729	0.197268
551.247	0.185835
550.765	0.187606
550.283	0.200679
549.8	0.210735
549.318	0.206878
548.836	0.200725
548.353	0.211468
547.871	0.232034
547.389	0.235207
546.907	0.208166
546.424	0.176653
545.942	0.172197
545.46	0.196619
544.977	0.229655
544.495	0.246076
544.013	0.237847
543.531	0.221516
543.048	0.218822
542.566	0.234826
542.084	0.253191
541.601	0.25197
541.119	0.227124
540.637	0.191379
540.155	0.153427
539.672	0.12362
539.19	0.121066
538.708	0.144836
538.225	0.169391
537.743	0.178648
537.261	0.184244
536.779	0.205923
536.296	0.232066
535.814	0.230367
535.332	0.187753
534.85	0.145439
534.367	0.146438
533.885	0.175685
533.403	0.188938
532.92	0.167218
532.438	0.147577
531.956	0.164029
531.474	0.192159
530.991	0.177309
530.509	0.127583
530.027	0.121548
529.544	0.195017
529.062	0.282591
528.58	0.293034
528.098	0.230552
527.615	0.182287
527.133	0.175538
526.651	0.167641
526.168	0.138261
525.686	0.12176
525.204	0.123423
524.722	0.0900724
524.239	0.0369362
523.757	0.0431211
523.275	0.131065
522.792	0.231241
522.31	0.255051
521.828	0.1922
521.346	0.177901
520.863	0.2393
520.381	0.308887
519.899	0.354138
519.417	0.243106
518.934	0.0916919
518.452	0.00252771
517.97	9.64327e-017
517.487	0.123343
517.005	0.185337
516.523	0.184803
516.041	0.162509
515.558	0.13386
515.076	0.286424
514.594	0.308958
514.111	0.193958
513.629	0.145984
513.147	0.167247
512.665	0.262211
512.182	0.408228
511.7	0.242574
511.218	0.0275902
510.735	0.116156
510.253	0.274701
509.771	0.239782
509.289	0.0712211
508.806	0.0239808
508.324	0.281539
507.842	0.589614
507.36	0.296093
506.877	0.163349
506.395	0.267645
505.913	0.477589
505.43	0.265759
504.948	0.0135395
504.466	0.0757817
503.984	0.40011
503.501	0.606961
503.019	0.213536
502.537	0.0524036
502.054	0.214174
501.572	0.329373
501.09	0.272649
500.608	0.18561
500.125	0.332873
499.643	0.423416
